[{"contentLanguage":"en","city":"not_fetched_or_initialized","country":"not_fetched_or_initialized","uuid":"03f2c57e-93ef-4a99-8257-cc60230897e8","data_type":"litw:initialize"},{"description":"irb","dropoutCode":0,"uuid":"03f2c57e-93ef-4a99-8257-cc60230897e8","data_type":"tracking:checkpoint"},{"description":"demographics","dropoutCode":0,"uuid":"03f2c57e-93ef-4a99-8257-cc60230897e8","data_type":"tracking:checkpoint"},{"retake":"0","age":"21","country0":"United Kingdom","education":"college","dataprivacy":"Yes","why":"I","uuid":"03f2c57e-93ef-4a99-8257-cc60230897e8","data_type":"study:demographics"},{"description":"websiteUseSurvey","dropoutCode":0,"uuid":"03f2c57e-93ef-4a99-8257-cc60230897e8","data_type":"tracking:checkpoint"},{"dataType":"websiteUseSurvey","accuweather":"dontuse","allrecipes":"sometimes","amazon":"dontuse","apple":"sometimes","bbc":"sometimes","craigslist":"sometimes","dictionary":"usedto","ebay":"sometimes","expedia":"dontuse","facebook":"dontuse","gmail":"dontuse","google":"sometimes","google-maps":"usedto","google-play":"often","govuk":"sometimes","imdb":"sometimes","instagram":"sometimes","linkedin":"usedto","metoffice":"sometimes","netflix":"dontuse","nytimes":"sometimes","outlook":"usedto","paypal":"often","reddit":"sometimes","tripadvisor":"sometimes","twitter":"sometimes","usagov":"usedto","whatsapp":"sometimes","wikipedia":"sometimes","yahoo":"sometimes","youtube":"dontuse","uuid":"03f2c57e-93ef-4a99-8257-cc60230897e8","data_type":"study:data"},{"description":"instructions","dropoutCode":0,"uuid":"03f2c57e-93ef-4a99-8257-cc60230897e8","data_type":"tracking:checkpoint"},{"description":"practice-1","dropoutCode":0,"uuid":"03f2c57e-93ef-4a99-8257-cc60230897e8","data_type":"tracking:checkpoint"},{"rt":3096,"responses":"{\"Q0\":\"0\"}","scenario":"\"netflix\"","tool":"{}","trial_type":"survey-likert","trial_index":3,"time_elapsed":38557,"internal_node_id":"0.0-3.0","uuid":"03f2c57e-93ef-4a99-8257-cc60230897e8","data_type":"study:data"},{"description":"pre-trial break","dropoutCode":0,"uuid":"03f2c57e-93ef-4a99-8257-cc60230897e8","data_type":"tracking:checkpoint"},{"description":"trials-1-1","dropoutCode":0,"uuid":"03f2c57e-93ef-4a99-8257-cc60230897e8","data_type":"tracking:checkpoint"},{"rt":12236,"responses":"{\"Q0\":\"2\"}","scenario":"\"facebook-1\"","tool":"{}","trial_type":"survey-likert","trial_index":8,"time_elapsed":54742,"internal_node_id":"0.0-8.0","uuid":"03f2c57e-93ef-4a99-8257-cc60230897e8","data_type":"study:data"},{"description":"trials-1-2","dropoutCode":0,"uuid":"03f2c57e-93ef-4a99-8257-cc60230897e8","data_type":"tracking:checkpoint"},{"rt":2519,"responses":"{\"Q0\":\"1\"}","scenario":"\"amazon-2\"","tool":"{}","trial_type":"survey-likert","trial_index":11,"time_elapsed":58276,"internal_node_id":"0.0-11.0","uuid":"03f2c57e-93ef-4a99-8257-cc60230897e8","data_type":"study:data"},{"description":"trials-1-3","dropoutCode":0,"uuid":"03f2c57e-93ef-4a99-8257-cc60230897e8","data_type":"tracking:checkpoint"},{"rt":5445,"responses":"{\"Q0\":\"1\"}","scenario":"\"amazon-1\"","tool":"{}","trial_type":"survey-likert","trial_index":14,"time_elapsed":64733,"internal_node_id":"0.0-14.0","uuid":"03f2c57e-93ef-4a99-8257-cc60230897e8","data_type":"study:data"},{"description":"trials-1-4","dropoutCode":0,"uuid":"03f2c57e-93ef-4a99-8257-cc60230897e8","data_type":"tracking:checkpoint"},{"rt":6595,"responses":"{\"Q0\":\"1\"}","scenario":"\"amazon-3\"","tool":"{}","trial_type":"survey-likert","trial_index":17,"time_elapsed":72340,"internal_node_id":"0.0-17.0","uuid":"03f2c57e-93ef-4a99-8257-cc60230897e8","data_type":"study:data"},{"description":"trials-1-5","dropoutCode":0,"uuid":"03f2c57e-93ef-4a99-8257-cc60230897e8","data_type":"tracking:checkpoint"},{"rt":5572,"responses":"{\"Q0\":\"3\"}","scenario":"\"ebay-1\"","tool":"{}","trial_type":"survey-likert","trial_index":20,"time_elapsed":78924,"internal_node_id":"0.0-20.0","uuid":"03f2c57e-93ef-4a99-8257-cc60230897e8","data_type":"study:data"},{"description":"mid-trial break","dropoutCode":0,"uuid":"03f2c57e-93ef-4a99-8257-cc60230897e8","data_type":"tracking:checkpoint"},{"description":"instructions","dropoutCode":0,"uuid":"03f2c57e-93ef-4a99-8257-cc60230897e8","data_type":"tracking:checkpoint"},{"description":"practice-1","dropoutCode":0,"uuid":"03f2c57e-93ef-4a99-8257-cc60230897e8","data_type":"tracking:checkpoint"},{"rt":2365,"responses":"{\"Q0\":\"No\"}","questions":"[\"bankaccount\"]","website":"\"twitter\"","trial_type":"survey-multi-choice","trial_index":26,"time_elapsed":88266,"internal_node_id":"0.0-26.0","uuid":"03f2c57e-93ef-4a99-8257-cc60230897e8","data_type":"study:data"},{"description":"pre-trial break","dropoutCode":0,"uuid":"03f2c57e-93ef-4a99-8257-cc60230897e8","data_type":"tracking:checkpoint"},{"description":"trials-2-1","dropoutCode":0,"uuid":"03f2c57e-93ef-4a99-8257-cc60230897e8","data_type":"tracking:checkpoint"},{"rt":6424,"responses":"{\"Q0\":\"No\",\"Q1\":\"No\",\"Q2\":\"Yes\"}","questions":"[\"religion\",\"products\",\"address\"]","website":"\"google_maps\"","trial_type":"survey-multi-choice","trial_index":31,"time_elapsed":98499,"internal_node_id":"0.0-31.0","uuid":"03f2c57e-93ef-4a99-8257-cc60230897e8","data_type":"study:data"},{"description":"trials-2-2","dropoutCode":0,"uuid":"03f2c57e-93ef-4a99-8257-cc60230897e8","data_type":"tracking:checkpoint"},{"rt":6024,"responses":"{\"Q0\":\"No\",\"Q1\":\"No\",\"Q2\":\"No\"}","questions":"[\"race\",\"contacts\",\"creditcard\"]","website":"\"met_office\"","trial_type":"survey-multi-choice","trial_index":34,"time_elapsed":105538,"internal_node_id":"0.0-34.0","uuid":"03f2c57e-93ef-4a99-8257-cc60230897e8","data_type":"study:data"},{"description":"trials-2-3","dropoutCode":0,"uuid":"03f2c57e-93ef-4a99-8257-cc60230897e8","data_type":"tracking:checkpoint"},{"rt":13060,"responses":"{\"Q0\":\"No\",\"Q1\":\"No\",\"Q2\":\"No\"}","questions":"[\"fingerprint\",\"emails\",\"sexuality\"]","website":"\"outlook\"","trial_type":"survey-multi-choice","trial_index":37,"time_elapsed":119617,"internal_node_id":"0.0-37.0","uuid":"03f2c57e-93ef-4a99-8257-cc60230897e8","data_type":"study:data"},{"description":"trials-2-4","dropoutCode":0,"uuid":"03f2c57e-93ef-4a99-8257-cc60230897e8","data_type":"tracking:checkpoint"},{"rt":6065,"responses":"{\"Q0\":\"No\",\"Q1\":\"No\",\"Q2\":\"Yes\"}","questions":"[\"messages\",\"hobbies\",\"device\"]","website":"\"ny_times\"","trial_type":"survey-multi-choice","trial_index":40,"time_elapsed":126697,"internal_node_id":"0.0-40.0","uuid":"03f2c57e-93ef-4a99-8257-cc60230897e8","data_type":"study:data"},{"description":"trials-2-5","dropoutCode":0,"uuid":"03f2c57e-93ef-4a99-8257-cc60230897e8","data_type":"tracking:checkpoint"},{"rt":5926,"responses":"{\"Q0\":\"No\",\"Q1\":\"No\",\"Q2\":\"No\"}","questions":"[\"passport\",\"photos\",\"employment\"]","website":"\"imbd\"","trial_type":"survey-multi-choice","trial_index":43,"time_elapsed":133634,"internal_node_id":"0.0-43.0","uuid":"03f2c57e-93ef-4a99-8257-cc60230897e8","data_type":"study:data"},{"description":"mid-trial break","dropoutCode":0,"uuid":"03f2c57e-93ef-4a99-8257-cc60230897e8","data_type":"tracking:checkpoint"},{"description":"instructions","dropoutCode":0,"uuid":"03f2c57e-93ef-4a99-8257-cc60230897e8","data_type":"tracking:checkpoint"},{"description":"practice-1","dropoutCode":0,"uuid":"03f2c57e-93ef-4a99-8257-cc60230897e8","data_type":"tracking:checkpoint"},{"rt":5401,"responses":"{\"Q0\":\"4\"}","scenario":"{}","tool":"\"browser\"","trial_type":"survey-likert","trial_index":49,"time_elapsed":146597,"internal_node_id":"0.0-49.0","uuid":"03f2c57e-93ef-4a99-8257-cc60230897e8","data_type":"study:data"},{"description":"pre-trial break","dropoutCode":0,"uuid":"03f2c57e-93ef-4a99-8257-cc60230897e8","data_type":"tracking:checkpoint"},{"description":"trials-3-1","dropoutCode":0,"uuid":"03f2c57e-93ef-4a99-8257-cc60230897e8","data_type":"tracking:checkpoint"},{"rt":1478,"responses":"{\"Q0\":\"4\"}","scenario":"{}","tool":"\"adblocker\"","trial_type":"survey-likert","trial_index":54,"time_elapsed":151852,"internal_node_id":"0.0-54.0","uuid":"03f2c57e-93ef-4a99-8257-cc60230897e8","data_type":"study:data"},{"general-comments":"","technical":"no","technical-comments":"","cheating":"no","cheating-comments":"","uuid":"03f2c57e-93ef-4a99-8257-cc60230897e8","data_type":"study:comments"},{"description":"irb","dropoutCode":0,"uuid":"7ace0bf1-8fe3-4330-b064-4ee0158e7498","data_type":"tracking:checkpoint"},{"contentLanguage":"en","city":"not_fetched_or_initialized","country":"not_fetched_or_initialized","uuid":"7ace0bf1-8fe3-4330-b064-4ee0158e7498","data_type":"litw:initialize"},{"description":"irb","dropoutCode":0,"uuid":"bed2a612-5d7e-403e-926f-7222175966a1","data_type":"tracking:checkpoint"},{"contentLanguage":"en","city":"not_fetched_or_initialized","country":"not_fetched_or_initialized","uuid":"bed2a612-5d7e-403e-926f-7222175966a1","data_type":"litw:initialize"},{"description":"irb","dropoutCode":0,"uuid":"46b2d7c7-1fa7-4c8b-b8dd-7805d88c9906","data_type":"tracking:checkpoint"},{"contentLanguage":"en","city":"not_fetched_or_initialized","country":"not_fetched_or_initialized","uuid":"46b2d7c7-1fa7-4c8b-b8dd-7805d88c9906","data_type":"litw:initialize"},{"description":"irb","dropoutCode":0,"uuid":"d2eec716-30f9-4e3d-bf63-6371ebde31a2","data_type":"tracking:checkpoint"},{"contentLanguage":"en","city":"not_fetched_or_initialized","country":"not_fetched_or_initialized","uuid":"d2eec716-30f9-4e3d-bf63-6371ebde31a2","data_type":"litw:initialize"},{"description":"irb","dropoutCode":0,"uuid":"7625eac1-a8e4-4c45-b8db-309cef50702b","data_type":"tracking:checkpoint"},{"contentLanguage":"en","city":"not_fetched_or_initialized","country":"not_fetched_or_initialized","uuid":"7625eac1-a8e4-4c45-b8db-309cef50702b","data_type":"litw:initialize"},{"description":"irb","dropoutCode":0,"uuid":"004e8ba0-b1b9-49f1-824a-645cd8205172","data_type":"tracking:checkpoint"},{"contentLanguage":"en","city":"not_fetched_or_initialized","country":"not_fetched_or_initialized","uuid":"004e8ba0-b1b9-49f1-824a-645cd8205172","data_type":"litw:initialize"},{"description":"demographics","dropoutCode":0,"uuid":"004e8ba0-b1b9-49f1-824a-645cd8205172","data_type":"tracking:checkpoint"},{"description":"irb","dropoutCode":0,"uuid":"651e0f32-90d9-49d2-88e7-d0f2d73e3afd","data_type":"tracking:checkpoint"},{"contentLanguage":"en","city":"not_fetched_or_initialized","country":"not_fetched_or_initialized","uuid":"651e0f32-90d9-49d2-88e7-d0f2d73e3afd","data_type":"litw:initialize"},{"contentLanguage":"en","city":"not_fetched_or_initialized","country":"not_fetched_or_initialized","uuid":"039b1e55-eee0-45a1-a9e8-8c4d39ebfd27","data_type":"litw:initialize"},{"description":"irb","dropoutCode":0,"uuid":"039b1e55-eee0-45a1-a9e8-8c4d39ebfd27","data_type":"tracking:checkpoint"},{"description":"demographics","dropoutCode":0,"uuid":"039b1e55-eee0-45a1-a9e8-8c4d39ebfd27","data_type":"tracking:checkpoint"},{"retake":"0","age":"99","country0":"United Kingdom","education":"college","dataprivacy":"No","why":"I don","uuid":"039b1e55-eee0-45a1-a9e8-8c4d39ebfd27","data_type":"study:demographics"},{"description":"websiteUseSurvey","dropoutCode":0,"uuid":"039b1e55-eee0-45a1-a9e8-8c4d39ebfd27","data_type":"tracking:checkpoint"},{"dataType":"websiteUseSurvey","accuweather":"never","allrecipes":"never","amazon":"never","apple":"never","bbc":"never","craigslist":"cnever","dictionary":"never","ebay":"never","expedia":"never","facebook":"never","gmail":"never","google":"never","google-maps":"never","google-play":"never","govuk":"never","imdb":"never","instagram":"never","linkedin":"never","metoffice":"never","netflix":"never","nytimes":"never","outlook":"never","paypal":"never","reddit":"never","tripadvisor":"never","twitter":"never","usagov":"never","whatsapp":"never","wikipedia":"never","yahoo":"never","youtube":"never","uuid":"039b1e55-eee0-45a1-a9e8-8c4d39ebfd27","data_type":"study:data"},{"description":"instructions","dropoutCode":0,"uuid":"039b1e55-eee0-45a1-a9e8-8c4d39ebfd27","data_type":"tracking:checkpoint"},{"description":"practice-1","dropoutCode":0,"uuid":"039b1e55-eee0-45a1-a9e8-8c4d39ebfd27","data_type":"tracking:checkpoint"},{"rt":11323,"responses":"{\"Q0\":\"1\"}","scenario":"\"netflix\"","tool":"{}","trial_type":"survey-likert","trial_index":3,"time_elapsed":50707,"internal_node_id":"0.0-3.0","uuid":"039b1e55-eee0-45a1-a9e8-8c4d39ebfd27","data_type":"study:data"},{"description":"pre-trial break","dropoutCode":0,"uuid":"039b1e55-eee0-45a1-a9e8-8c4d39ebfd27","data_type":"tracking:checkpoint"},{"description":"trials-1-1","dropoutCode":0,"uuid":"039b1e55-eee0-45a1-a9e8-8c4d39ebfd27","data_type":"tracking:checkpoint"},{"rt":17690,"responses":"{\"Q0\":\"1\"}","scenario":"\"facebook-3\"","tool":"{}","trial_type":"survey-likert","trial_index":8,"time_elapsed":73164,"internal_node_id":"0.0-8.0","uuid":"039b1e55-eee0-45a1-a9e8-8c4d39ebfd27","data_type":"study:data"},{"description":"trials-1-2","dropoutCode":0,"uuid":"039b1e55-eee0-45a1-a9e8-8c4d39ebfd27","data_type":"tracking:checkpoint"},{"description":"irb","dropoutCode":0,"uuid":"e2816187-c7c2-4e35-801c-c6d35bcd0cb6","data_type":"tracking:checkpoint"},{"contentLanguage":"en","city":"not_fetched_or_initialized","country":"not_fetched_or_initialized","uuid":"e2816187-c7c2-4e35-801c-c6d35bcd0cb6","data_type":"litw:initialize"},{"description":"demographics","dropoutCode":0,"uuid":"e2816187-c7c2-4e35-801c-c6d35bcd0cb6","data_type":"tracking:checkpoint"},{"description":"irb","dropoutCode":0,"uuid":"9a0ea2f4-b7f2-4c59-bf00-e4c51e6ad9ca","data_type":"tracking:checkpoint"},{"contentLanguage":"en","city":"not_fetched_or_initialized","country":"not_fetched_or_initialized","uuid":"9a0ea2f4-b7f2-4c59-bf00-e4c51e6ad9ca","data_type":"litw:initialize"},{"description":"demographics","dropoutCode":0,"uuid":"9a0ea2f4-b7f2-4c59-bf00-e4c51e6ad9ca","data_type":"tracking:checkpoint"},{"description":"irb","dropoutCode":0,"uuid":"390d5d32-a931-46df-9615-cf9b8a4690b4","data_type":"tracking:checkpoint"},{"contentLanguage":"en","city":"not_fetched_or_initialized","country":"not_fetched_or_initialized","uuid":"390d5d32-a931-46df-9615-cf9b8a4690b4","data_type":"litw:initialize"},{"description":"irb","dropoutCode":0,"uuid":"bbbef48f-7e0c-420e-8571-3cad432e318b","data_type":"tracking:checkpoint"},{"contentLanguage":"en","city":"not_fetched_or_initialized","country":"not_fetched_or_initialized","uuid":"bbbef48f-7e0c-420e-8571-3cad432e318b","data_type":"litw:initialize"},{"contentLanguage":"en","city":"not_fetched_or_initialized","country":"not_fetched_or_initialized","uuid":"52e3b104-bf21-4fde-92f6-08a6484eb942","data_type":"litw:initialize"},{"description":"irb","dropoutCode":0,"uuid":"52e3b104-bf21-4fde-92f6-08a6484eb942","data_type":"tracking:checkpoint"},{"contentLanguage":"en","city":"not_fetched_or_initialized","country":"not_fetched_or_initialized","uuid":"06f8321e-25e6-4bf1-ad57-239f749d413e","data_type":"litw:initialize"},{"description":"irb","dropoutCode":0,"uuid":"06f8321e-25e6-4bf1-ad57-239f749d413e","data_type":"tracking:checkpoint"},{"description":"demographics","dropoutCode":0,"uuid":"06f8321e-25e6-4bf1-ad57-239f749d413e","data_type":"tracking:checkpoint"},{"retake":"0","age":"98","country0":"Afghanistan","education":"college","dataprivacy":"No","why":"It would worry me too much","uuid":"06f8321e-25e6-4bf1-ad57-239f749d413e","data_type":"study:demographics"},{"description":"websiteUseSurvey","dropoutCode":0,"uuid":"06f8321e-25e6-4bf1-ad57-239f749d413e","data_type":"tracking:checkpoint"},{"dataType":"websiteUseSurvey","accuweather":"often","allrecipes":"often","amazon":"often","apple":"often","bbc":"often","craigslist":"often","dictionary":"often","ebay":"often","expedia":"often","facebook":"often","gmail":"often","google":"often","google-maps":"often","google-play":"often","govuk":"often","imdb":"often","instagram":"often","linkedin":"often","metoffice":"often","netflix":"often","nytimes":"often","outlook":"often","paypal":"often","reddit":"often","tripadvisor":"often","twitter":"often","usagov":"often","whatsapp":"often","wikipedia":"often","yahoo":"often","youtube":"often","uuid":"06f8321e-25e6-4bf1-ad57-239f749d413e","data_type":"study:data"},{"description":"instructions","dropoutCode":0,"uuid":"06f8321e-25e6-4bf1-ad57-239f749d413e","data_type":"tracking:checkpoint"},{"description":"practice-1","dropoutCode":0,"uuid":"06f8321e-25e6-4bf1-ad57-239f749d413e","data_type":"tracking:checkpoint"},{"rt":2864,"responses":"{\"Q0\":\"1\"}","scenario":"\"netflix\"","tool":"{}","trial_type":"survey-likert","trial_index":3,"time_elapsed":42879,"internal_node_id":"0.0-3.0","uuid":"06f8321e-25e6-4bf1-ad57-239f749d413e","data_type":"study:data"},{"description":"pre-trial break","dropoutCode":0,"uuid":"06f8321e-25e6-4bf1-ad57-239f749d413e","data_type":"tracking:checkpoint"},{"description":"trials-1-1","dropoutCode":0,"uuid":"06f8321e-25e6-4bf1-ad57-239f749d413e","data_type":"tracking:checkpoint"},{"rt":6663,"responses":"{\"Q0\":\"3\"}","scenario":"\"facebook-3\"","tool":"{}","trial_type":"survey-likert","trial_index":8,"time_elapsed":53317,"internal_node_id":"0.0-8.0","uuid":"06f8321e-25e6-4bf1-ad57-239f749d413e","data_type":"study:data"},{"description":"trials-1-2","dropoutCode":0,"uuid":"06f8321e-25e6-4bf1-ad57-239f749d413e","data_type":"tracking:checkpoint"},{"rt":1110,"responses":"{\"Q0\":-1}","scenario":"\"bbc-2\"","tool":"{}","trial_type":"survey-likert","trial_index":11,"time_elapsed":55445,"internal_node_id":"0.0-11.0","uuid":"06f8321e-25e6-4bf1-ad57-239f749d413e","data_type":"study:data"},{"description":"trials-1-3","dropoutCode":0,"uuid":"06f8321e-25e6-4bf1-ad57-239f749d413e","data_type":"tracking:checkpoint"},{"rt":3921,"responses":"{\"Q0\":\"1\"}","scenario":"\"dictionary-2\"","tool":"{}","trial_type":"survey-likert","trial_index":14,"time_elapsed":60381,"internal_node_id":"0.0-14.0","uuid":"06f8321e-25e6-4bf1-ad57-239f749d413e","data_type":"study:data"},{"description":"trials-1-4","dropoutCode":0,"uuid":"06f8321e-25e6-4bf1-ad57-239f749d413e","data_type":"tracking:checkpoint"},{"rt":3545,"responses":"{\"Q0\":\"2\"}","scenario":"\"ebay-2\"","tool":"{}","trial_type":"survey-likert","trial_index":17,"time_elapsed":64942,"internal_node_id":"0.0-17.0","uuid":"06f8321e-25e6-4bf1-ad57-239f749d413e","data_type":"study:data"},{"description":"trials-1-5","dropoutCode":0,"uuid":"06f8321e-25e6-4bf1-ad57-239f749d413e","data_type":"tracking:checkpoint"},{"rt":2626,"responses":"{\"Q0\":\"3\"}","scenario":"\"allrecipes\"","tool":"{}","trial_type":"survey-likert","trial_index":20,"time_elapsed":68584,"internal_node_id":"0.0-20.0","uuid":"06f8321e-25e6-4bf1-ad57-239f749d413e","data_type":"study:data"},{"description":"mid-trial break","dropoutCode":0,"uuid":"06f8321e-25e6-4bf1-ad57-239f749d413e","data_type":"tracking:checkpoint"},{"description":"instructions","dropoutCode":0,"uuid":"06f8321e-25e6-4bf1-ad57-239f749d413e","data_type":"tracking:checkpoint"},{"description":"practice-1","dropoutCode":0,"uuid":"06f8321e-25e6-4bf1-ad57-239f749d413e","data_type":"tracking:checkpoint"},{"rt":3674,"responses":"{\"Q0\":\"No\"}","questions":"[\"bankaccount\"]","website":"\"twitter\"","trial_type":"survey-multi-choice","trial_index":26,"time_elapsed":80176,"internal_node_id":"0.0-26.0","uuid":"06f8321e-25e6-4bf1-ad57-239f749d413e","data_type":"study:data"},{"description":"pre-trial break","dropoutCode":0,"uuid":"06f8321e-25e6-4bf1-ad57-239f749d413e","data_type":"tracking:checkpoint"},{"description":"trials-2-1","dropoutCode":0,"uuid":"06f8321e-25e6-4bf1-ad57-239f749d413e","data_type":"tracking:checkpoint"},{"rt":6383,"responses":"{\"Q0\":\"No\",\"Q1\":\"No\",\"Q2\":\"No\"}","questions":"[\"passport\",\"disability\",\"fullname\"]","website":"\"ny_times\"","trial_type":"survey-multi-choice","trial_index":31,"time_elapsed":90773,"internal_node_id":"0.0-31.0","uuid":"06f8321e-25e6-4bf1-ad57-239f749d413e","data_type":"study:data"},{"description":"trials-2-2","dropoutCode":0,"uuid":"06f8321e-25e6-4bf1-ad57-239f749d413e","data_type":"tracking:checkpoint"},{"description":"trials-2-3","dropoutCode":0,"uuid":"06f8321e-25e6-4bf1-ad57-239f749d413e","data_type":"tracking:checkpoint"},{"rt":1889073,"responses":"{}","questions":"[\"products\",\"face\",\"contacts\"]","website":"\"apple\"","trial_type":"survey-multi-choice","trial_index":34,"time_elapsed":1980865,"internal_node_id":"0.0-34.0","uuid":"06f8321e-25e6-4bf1-ad57-239f749d413e","data_type":"study:data"},{"rt":1259,"responses":"{}","questions":"[\"location\",\"employment\",\"photos\"]","website":"\"expedia\"","trial_type":"survey-multi-choice","trial_index":37,"time_elapsed":1983154,"internal_node_id":"0.0-37.0","uuid":"06f8321e-25e6-4bf1-ad57-239f749d413e","data_type":"study:data"},{"description":"trials-2-4","dropoutCode":0,"uuid":"06f8321e-25e6-4bf1-ad57-239f749d413e","data_type":"tracking:checkpoint"},{"rt":1362,"responses":"{}","questions":"[\"creditcard\",\"messages\",\"bank\"]","website":"\"bbc\"","trial_type":"survey-multi-choice","trial_index":40,"time_elapsed":1985536,"internal_node_id":"0.0-40.0","uuid":"06f8321e-25e6-4bf1-ad57-239f749d413e","data_type":"study:data"},{"description":"trials-2-5","dropoutCode":0,"uuid":"06f8321e-25e6-4bf1-ad57-239f749d413e","data_type":"tracking:checkpoint"},{"rt":1147,"responses":"{}","questions":"[\"lean\",\"dietary\",\"sexuality\"]","website":"\"google_play\"","trial_type":"survey-multi-choice","trial_index":43,"time_elapsed":1987704,"internal_node_id":"0.0-43.0","uuid":"06f8321e-25e6-4bf1-ad57-239f749d413e","data_type":"study:data"},{"description":"mid-trial break","dropoutCode":0,"uuid":"06f8321e-25e6-4bf1-ad57-239f749d413e","data_type":"tracking:checkpoint"},{"description":"instructions","dropoutCode":0,"uuid":"06f8321e-25e6-4bf1-ad57-239f749d413e","data_type":"tracking:checkpoint"},{"description":"practice-1","dropoutCode":0,"uuid":"06f8321e-25e6-4bf1-ad57-239f749d413e","data_type":"tracking:checkpoint"},{"rt":1763,"responses":"{\"Q0\":\"3\"}","scenario":"{}","tool":"\"browser\"","trial_type":"survey-likert","trial_index":49,"time_elapsed":2011697,"internal_node_id":"0.0-49.0","uuid":"06f8321e-25e6-4bf1-ad57-239f749d413e","data_type":"study:data"},{"description":"pre-trial break","dropoutCode":0,"uuid":"06f8321e-25e6-4bf1-ad57-239f749d413e","data_type":"tracking:checkpoint"},{"description":"trials-3-1","dropoutCode":0,"uuid":"06f8321e-25e6-4bf1-ad57-239f749d413e","data_type":"tracking:checkpoint"},{"rt":2409,"responses":"{\"Q0\":\"3\"}","scenario":"{}","tool":"\"adblocker\"","trial_type":"survey-likert","trial_index":54,"time_elapsed":2017862,"internal_node_id":"0.0-54.0","uuid":"06f8321e-25e6-4bf1-ad57-239f749d413e","data_type":"study:data"},{"general-comments":"","technical":"no","technical-comments":"","cheating":"no","cheating-comments":"","uuid":"06f8321e-25e6-4bf1-ad57-239f749d413e","data_type":"study:comments"},{"description":"irb","dropoutCode":0,"uuid":"00269183-2ba1-4a32-8ccc-8062d9f89a4b","data_type":"tracking:checkpoint"},{"contentLanguage":"en","city":"not_fetched_or_initialized","country":"not_fetched_or_initialized","uuid":"00269183-2ba1-4a32-8ccc-8062d9f89a4b","data_type":"litw:initialize"},{"description":"demographics","dropoutCode":0,"uuid":"00269183-2ba1-4a32-8ccc-8062d9f89a4b","data_type":"tracking:checkpoint"},{"retake":"0","uuid":"00269183-2ba1-4a32-8ccc-8062d9f89a4b","data_type":"study:demographics"},{"description":"websiteUseSurvey","dropoutCode":0,"uuid":"00269183-2ba1-4a32-8ccc-8062d9f89a4b","data_type":"tracking:checkpoint"},{"dataType":"websiteUseSurvey","uuid":"00269183-2ba1-4a32-8ccc-8062d9f89a4b","data_type":"study:data"},{"description":"instructions","dropoutCode":0,"uuid":"00269183-2ba1-4a32-8ccc-8062d9f89a4b","data_type":"tracking:checkpoint"},{"description":"practice-1","dropoutCode":0,"uuid":"00269183-2ba1-4a32-8ccc-8062d9f89a4b","data_type":"tracking:checkpoint"},{"rt":64761,"responses":"{\"Q0\":-1}","scenario":"\"netflix\"","tool":"{}","trial_type":"survey-likert","trial_index":3,"time_elapsed":73181,"internal_node_id":"0.0-3.0","uuid":"00269183-2ba1-4a32-8ccc-8062d9f89a4b","data_type":"study:data"},{"description":"pre-trial break","dropoutCode":0,"uuid":"00269183-2ba1-4a32-8ccc-8062d9f89a4b","data_type":"tracking:checkpoint"},{"description":"trials-1-1","dropoutCode":0,"uuid":"00269183-2ba1-4a32-8ccc-8062d9f89a4b","data_type":"tracking:checkpoint"},{"rt":895,"responses":"{\"Q0\":-1}","scenario":"\"amazon-3\"","tool":"{}","trial_type":"survey-likert","trial_index":8,"time_elapsed":77961,"internal_node_id":"0.0-8.0","uuid":"00269183-2ba1-4a32-8ccc-8062d9f89a4b","data_type":"study:data"},{"description":"trials-1-2","dropoutCode":0,"uuid":"00269183-2ba1-4a32-8ccc-8062d9f89a4b","data_type":"tracking:checkpoint"},{"rt":1246,"responses":"{\"Q0\":-1}","scenario":"\"bbc-1\"","tool":"{}","trial_type":"survey-likert","trial_index":11,"time_elapsed":80224,"internal_node_id":"0.0-11.0","uuid":"00269183-2ba1-4a32-8ccc-8062d9f89a4b","data_type":"study:data"},{"description":"trials-1-3","dropoutCode":0,"uuid":"00269183-2ba1-4a32-8ccc-8062d9f89a4b","data_type":"tracking:checkpoint"},{"rt":1116,"responses":"{\"Q0\":-1}","scenario":"\"amazon-2\"","tool":"{}","trial_type":"survey-likert","trial_index":14,"time_elapsed":82361,"internal_node_id":"0.0-14.0","uuid":"00269183-2ba1-4a32-8ccc-8062d9f89a4b","data_type":"study:data"},{"description":"trials-1-4","dropoutCode":0,"uuid":"00269183-2ba1-4a32-8ccc-8062d9f89a4b","data_type":"tracking:checkpoint"},{"rt":1008,"responses":"{\"Q0\":-1}","scenario":"\"facebook-3\"","tool":"{}","trial_type":"survey-likert","trial_index":17,"time_elapsed":84385,"internal_node_id":"0.0-17.0","uuid":"00269183-2ba1-4a32-8ccc-8062d9f89a4b","data_type":"study:data"},{"description":"trials-1-5","dropoutCode":0,"uuid":"00269183-2ba1-4a32-8ccc-8062d9f89a4b","data_type":"tracking:checkpoint"},{"rt":671,"responses":"{\"Q0\":-1}","scenario":"\"facebook-2\"","tool":"{}","trial_type":"survey-likert","trial_index":20,"time_elapsed":86072,"internal_node_id":"0.0-20.0","uuid":"00269183-2ba1-4a32-8ccc-8062d9f89a4b","data_type":"study:data"},{"description":"mid-trial break","dropoutCode":0,"uuid":"00269183-2ba1-4a32-8ccc-8062d9f89a4b","data_type":"tracking:checkpoint"},{"description":"instructions","dropoutCode":0,"uuid":"00269183-2ba1-4a32-8ccc-8062d9f89a4b","data_type":"tracking:checkpoint"},{"description":"practice-1","dropoutCode":0,"uuid":"00269183-2ba1-4a32-8ccc-8062d9f89a4b","data_type":"tracking:checkpoint"},{"rt":962,"responses":"{}","questions":"[\"bankaccount\"]","website":"\"twitter\"","trial_type":"survey-multi-choice","trial_index":26,"time_elapsed":94525,"internal_node_id":"0.0-26.0","uuid":"00269183-2ba1-4a32-8ccc-8062d9f89a4b","data_type":"study:data"},{"description":"pre-trial break","dropoutCode":0,"uuid":"00269183-2ba1-4a32-8ccc-8062d9f89a4b","data_type":"tracking:checkpoint"},{"description":"trials-2-1","dropoutCode":0,"uuid":"00269183-2ba1-4a32-8ccc-8062d9f89a4b","data_type":"tracking:checkpoint"},{"rt":1474,"responses":"{}","questions":"[\"religion\",\"race\",\"device\"]","website":"\"allrecipes\"","trial_type":"survey-multi-choice","trial_index":31,"time_elapsed":100083,"internal_node_id":"0.0-31.0","uuid":"00269183-2ba1-4a32-8ccc-8062d9f89a4b","data_type":"study:data"},{"description":"trials-2-2","dropoutCode":0,"uuid":"00269183-2ba1-4a32-8ccc-8062d9f89a4b","data_type":"tracking:checkpoint"},{"rt":2362,"responses":"{}","questions":"[\"address\",\"employment\",\"face\"]","website":"\"facebook\"","trial_type":"survey-multi-choice","trial_index":34,"time_elapsed":103462,"internal_node_id":"0.0-34.0","uuid":"00269183-2ba1-4a32-8ccc-8062d9f89a4b","data_type":"study:data"},{"description":"trials-2-3","dropoutCode":0,"uuid":"00269183-2ba1-4a32-8ccc-8062d9f89a4b","data_type":"tracking:checkpoint"},{"rt":1354,"responses":"{}","questions":"[\"contacts\",\"bankaccount\",\"lean\"]","website":"\"apple\"","trial_type":"survey-multi-choice","trial_index":37,"time_elapsed":105831,"internal_node_id":"0.0-37.0","uuid":"00269183-2ba1-4a32-8ccc-8062d9f89a4b","data_type":"study:data"},{"description":"trials-2-4","dropoutCode":0,"uuid":"00269183-2ba1-4a32-8ccc-8062d9f89a4b","data_type":"tracking:checkpoint"},{"rt":1135,"responses":"{}","questions":"[\"location\",\"creditcard\",\"disability\"]","website":"\"ny_times\"","trial_type":"survey-multi-choice","trial_index":40,"time_elapsed":107982,"internal_node_id":"0.0-40.0","uuid":"00269183-2ba1-4a32-8ccc-8062d9f89a4b","data_type":"study:data"},{"description":"trials-2-5","dropoutCode":0,"uuid":"00269183-2ba1-4a32-8ccc-8062d9f89a4b","data_type":"tracking:checkpoint"},{"rt":1694,"responses":"{}","questions":"[\"passport\",\"hobbies\",\"vote\"]","website":"\"bbc\"","trial_type":"survey-multi-choice","trial_index":43,"time_elapsed":110694,"internal_node_id":"0.0-43.0","uuid":"00269183-2ba1-4a32-8ccc-8062d9f89a4b","data_type":"study:data"},{"description":"mid-trial break","dropoutCode":0,"uuid":"00269183-2ba1-4a32-8ccc-8062d9f89a4b","data_type":"tracking:checkpoint"},{"description":"instructions","dropoutCode":0,"uuid":"00269183-2ba1-4a32-8ccc-8062d9f89a4b","data_type":"tracking:checkpoint"},{"description":"practice-1","dropoutCode":0,"uuid":"00269183-2ba1-4a32-8ccc-8062d9f89a4b","data_type":"tracking:checkpoint"},{"rt":1602,"responses":"{\"Q0\":-1}","scenario":"{}","tool":"\"browser\"","trial_type":"survey-likert","trial_index":49,"time_elapsed":119488,"internal_node_id":"0.0-49.0","uuid":"00269183-2ba1-4a32-8ccc-8062d9f89a4b","data_type":"study:data"},{"description":"pre-trial break","dropoutCode":0,"uuid":"00269183-2ba1-4a32-8ccc-8062d9f89a4b","data_type":"tracking:checkpoint"},{"description":"trials-3-1","dropoutCode":0,"uuid":"00269183-2ba1-4a32-8ccc-8062d9f89a4b","data_type":"tracking:checkpoint"},{"rt":1085,"responses":"{\"Q0\":-1}","scenario":"{}","tool":"\"adblocker\"","trial_type":"survey-likert","trial_index":54,"time_elapsed":124935,"internal_node_id":"0.0-54.0","uuid":"00269183-2ba1-4a32-8ccc-8062d9f89a4b","data_type":"study:data"},{"general-comments":"","technical":"no","technical-comments":"","cheating":"no","cheating-comments":"","uuid":"00269183-2ba1-4a32-8ccc-8062d9f89a4b","data_type":"study:comments"},{"description":"irb","dropoutCode":0,"uuid":"20dd1f8c-e398-4a7d-93a1-ff5a7c6f9acc","data_type":"tracking:checkpoint"},{"contentLanguage":"en","city":"not_fetched_or_initialized","country":"not_fetched_or_initialized","uuid":"20dd1f8c-e398-4a7d-93a1-ff5a7c6f9acc","data_type":"litw:initialize"},{"description":"demographics","dropoutCode":0,"uuid":"20dd1f8c-e398-4a7d-93a1-ff5a7c6f9acc","data_type":"tracking:checkpoint"},{"retake":"0","uuid":"20dd1f8c-e398-4a7d-93a1-ff5a7c6f9acc","data_type":"study:demographics"},{"description":"websiteUseSurvey","dropoutCode":0,"uuid":"20dd1f8c-e398-4a7d-93a1-ff5a7c6f9acc","data_type":"tracking:checkpoint"},{"dataType":"websiteUseSurvey","uuid":"20dd1f8c-e398-4a7d-93a1-ff5a7c6f9acc","data_type":"study:data"},{"description":"instructions","dropoutCode":0,"uuid":"20dd1f8c-e398-4a7d-93a1-ff5a7c6f9acc","data_type":"tracking:checkpoint"},{"description":"practice-1","dropoutCode":0,"uuid":"20dd1f8c-e398-4a7d-93a1-ff5a7c6f9acc","data_type":"tracking:checkpoint"},{"rt":1240,"responses":"{\"Q0\":-1}","scenario":"\"netflix\"","tool":"{}","trial_type":"survey-likert","trial_index":3,"time_elapsed":8853,"internal_node_id":"0.0-3.0","uuid":"20dd1f8c-e398-4a7d-93a1-ff5a7c6f9acc","data_type":"study:data"},{"description":"pre-trial break","dropoutCode":0,"uuid":"20dd1f8c-e398-4a7d-93a1-ff5a7c6f9acc","data_type":"tracking:checkpoint"},{"description":"trials-1-1","dropoutCode":0,"uuid":"20dd1f8c-e398-4a7d-93a1-ff5a7c6f9acc","data_type":"tracking:checkpoint"},{"rt":18544,"responses":"{\"Q0\":\"1\"}","scenario":"\"apple-1\"","tool":"{}","trial_type":"survey-likert","trial_index":8,"time_elapsed":31140,"internal_node_id":"0.0-8.0","uuid":"20dd1f8c-e398-4a7d-93a1-ff5a7c6f9acc","data_type":"study:data"},{"description":"trials-1-2","dropoutCode":0,"uuid":"20dd1f8c-e398-4a7d-93a1-ff5a7c6f9acc","data_type":"tracking:checkpoint"},{"rt":17392,"responses":"{\"Q0\":-1}","scenario":"\"dictionary-2\"","tool":"{}","trial_type":"survey-likert","trial_index":11,"time_elapsed":49547,"internal_node_id":"0.0-11.0","uuid":"20dd1f8c-e398-4a7d-93a1-ff5a7c6f9acc","data_type":"study:data"},{"description":"trials-1-3","dropoutCode":0,"uuid":"20dd1f8c-e398-4a7d-93a1-ff5a7c6f9acc","data_type":"tracking:checkpoint"},{"rt":707,"responses":"{\"Q0\":-1}","scenario":"\"ebay-1\"","tool":"{}","trial_type":"survey-likert","trial_index":14,"time_elapsed":51267,"internal_node_id":"0.0-14.0","uuid":"20dd1f8c-e398-4a7d-93a1-ff5a7c6f9acc","data_type":"study:data"},{"description":"trials-1-4","dropoutCode":0,"uuid":"20dd1f8c-e398-4a7d-93a1-ff5a7c6f9acc","data_type":"tracking:checkpoint"},{"rt":1012,"responses":"{\"Q0\":-1}","scenario":"\"facebook-2\"","tool":"{}","trial_type":"survey-likert","trial_index":17,"time_elapsed":53297,"internal_node_id":"0.0-17.0","uuid":"20dd1f8c-e398-4a7d-93a1-ff5a7c6f9acc","data_type":"study:data"},{"description":"trials-1-5","dropoutCode":0,"uuid":"20dd1f8c-e398-4a7d-93a1-ff5a7c6f9acc","data_type":"tracking:checkpoint"},{"rt":988,"responses":"{\"Q0\":-1}","scenario":"\"apple-2\"","tool":"{}","trial_type":"survey-likert","trial_index":20,"time_elapsed":55308,"internal_node_id":"0.0-20.0","uuid":"20dd1f8c-e398-4a7d-93a1-ff5a7c6f9acc","data_type":"study:data"},{"description":"mid-trial break","dropoutCode":0,"uuid":"20dd1f8c-e398-4a7d-93a1-ff5a7c6f9acc","data_type":"tracking:checkpoint"},{"description":"irb","dropoutCode":0,"uuid":"f02bd5c0-b735-40fc-8850-7dbbfc507ba4","data_type":"tracking:checkpoint"},{"contentLanguage":"en","city":"not_fetched_or_initialized","country":"not_fetched_or_initialized","uuid":"f02bd5c0-b735-40fc-8850-7dbbfc507ba4","data_type":"litw:initialize"},{"description":"demographics","dropoutCode":0,"uuid":"f02bd5c0-b735-40fc-8850-7dbbfc507ba4","data_type":"tracking:checkpoint"},{"retake":"0","uuid":"f02bd5c0-b735-40fc-8850-7dbbfc507ba4","data_type":"study:demographics"},{"description":"websiteUseSurvey","dropoutCode":0,"uuid":"f02bd5c0-b735-40fc-8850-7dbbfc507ba4","data_type":"tracking:checkpoint"},{"dataType":"websiteUseSurvey","uuid":"f02bd5c0-b735-40fc-8850-7dbbfc507ba4","data_type":"study:data"},{"description":"instructions","dropoutCode":0,"uuid":"f02bd5c0-b735-40fc-8850-7dbbfc507ba4","data_type":"tracking:checkpoint"},{"description":"practice-1","dropoutCode":0,"uuid":"f02bd5c0-b735-40fc-8850-7dbbfc507ba4","data_type":"tracking:checkpoint"},{"rt":1079,"responses":"{\"Q0\":-1}","scenario":"\"netflix\"","tool":"{}","trial_type":"survey-likert","trial_index":3,"time_elapsed":8616,"internal_node_id":"0.0-3.0","uuid":"f02bd5c0-b735-40fc-8850-7dbbfc507ba4","data_type":"study:data"},{"description":"pre-trial break","dropoutCode":0,"uuid":"f02bd5c0-b735-40fc-8850-7dbbfc507ba4","data_type":"tracking:checkpoint"},{"description":"trials-1-1","dropoutCode":0,"uuid":"f02bd5c0-b735-40fc-8850-7dbbfc507ba4","data_type":"tracking:checkpoint"},{"rt":2300,"responses":"{\"Q0\":-1}","scenario":"\"ebay-2\"","tool":"{}","trial_type":"survey-likert","trial_index":8,"time_elapsed":14719,"internal_node_id":"0.0-8.0","uuid":"f02bd5c0-b735-40fc-8850-7dbbfc507ba4","data_type":"study:data"},{"description":"trials-1-2","dropoutCode":0,"uuid":"f02bd5c0-b735-40fc-8850-7dbbfc507ba4","data_type":"tracking:checkpoint"},{"rt":1200,"responses":"{\"Q0\":-1}","scenario":"\"facebook-3\"","tool":"{}","trial_type":"survey-likert","trial_index":11,"time_elapsed":16934,"internal_node_id":"0.0-11.0","uuid":"f02bd5c0-b735-40fc-8850-7dbbfc507ba4","data_type":"study:data"},{"description":"trials-1-3","dropoutCode":0,"uuid":"f02bd5c0-b735-40fc-8850-7dbbfc507ba4","data_type":"tracking:checkpoint"},{"rt":1033,"responses":"{\"Q0\":-1}","scenario":"\"dictionary-2\"","tool":"{}","trial_type":"survey-likert","trial_index":14,"time_elapsed":18984,"internal_node_id":"0.0-14.0","uuid":"f02bd5c0-b735-40fc-8850-7dbbfc507ba4","data_type":"study:data"},{"description":"trials-1-4","dropoutCode":0,"uuid":"f02bd5c0-b735-40fc-8850-7dbbfc507ba4","data_type":"tracking:checkpoint"},{"rt":1132,"responses":"{\"Q0\":-1}","scenario":"\"amazon-1\"","tool":"{}","trial_type":"survey-likert","trial_index":17,"time_elapsed":21128,"internal_node_id":"0.0-17.0","uuid":"f02bd5c0-b735-40fc-8850-7dbbfc507ba4","data_type":"study:data"},{"description":"trials-1-5","dropoutCode":0,"uuid":"f02bd5c0-b735-40fc-8850-7dbbfc507ba4","data_type":"tracking:checkpoint"},{"description":"mid-trial break","dropoutCode":0,"uuid":"f02bd5c0-b735-40fc-8850-7dbbfc507ba4","data_type":"tracking:checkpoint"},{"rt":1002,"responses":"{\"Q0\":-1}","scenario":"\"dictionary-1\"","tool":"{}","trial_type":"survey-likert","trial_index":20,"time_elapsed":23144,"internal_node_id":"0.0-20.0","uuid":"f02bd5c0-b735-40fc-8850-7dbbfc507ba4","data_type":"study:data"},{"description":"irb","dropoutCode":0,"uuid":"19ff589b-2e3f-450c-b65d-68ab45c2c8e4","data_type":"tracking:checkpoint"},{"contentLanguage":"en","city":"not_fetched_or_initialized","country":"not_fetched_or_initialized","uuid":"19ff589b-2e3f-450c-b65d-68ab45c2c8e4","data_type":"litw:initialize"},{"contentLanguage":"en","city":"not_fetched_or_initialized","country":"not_fetched_or_initialized","uuid":"2efb2a9f-5cfe-48fe-9ec1-8b3785646b57","data_type":"litw:initialize"},{"description":"irb","dropoutCode":0,"uuid":"2efb2a9f-5cfe-48fe-9ec1-8b3785646b57","data_type":"tracking:checkpoint"},{"description":"demographics","dropoutCode":0,"uuid":"2efb2a9f-5cfe-48fe-9ec1-8b3785646b57","data_type":"tracking:checkpoint"},{"retake":"0","uuid":"2efb2a9f-5cfe-48fe-9ec1-8b3785646b57","data_type":"study:demographics"},{"description":"websiteUseSurvey","dropoutCode":0,"uuid":"2efb2a9f-5cfe-48fe-9ec1-8b3785646b57","data_type":"tracking:checkpoint"},{"dataType":"websiteUseSurvey","uuid":"2efb2a9f-5cfe-48fe-9ec1-8b3785646b57","data_type":"study:data"},{"description":"instructions","dropoutCode":0,"uuid":"2efb2a9f-5cfe-48fe-9ec1-8b3785646b57","data_type":"tracking:checkpoint"},{"description":"practice-1","dropoutCode":0,"uuid":"2efb2a9f-5cfe-48fe-9ec1-8b3785646b57","data_type":"tracking:checkpoint"},{"rt":2392,"responses":"{\"Q0\":\"1\"}","scenario":"\"scenario-example\"","tool":"{}","trial_type":"survey-likert","trial_index":3,"time_elapsed":19158,"internal_node_id":"0.0-3.0","uuid":"2efb2a9f-5cfe-48fe-9ec1-8b3785646b57","data_type":"study:data"},{"description":"pre-trial break","dropoutCode":0,"uuid":"2efb2a9f-5cfe-48fe-9ec1-8b3785646b57","data_type":"tracking:checkpoint"},{"description":"trials-1-1","dropoutCode":0,"uuid":"2efb2a9f-5cfe-48fe-9ec1-8b3785646b57","data_type":"tracking:checkpoint"},{"rt":1514,"responses":"{\"Q0\":-1}","scenario":"\"amazon-1\"","tool":"{}","trial_type":"survey-likert","trial_index":8,"time_elapsed":25044,"internal_node_id":"0.0-8.0","uuid":"2efb2a9f-5cfe-48fe-9ec1-8b3785646b57","data_type":"study:data"},{"description":"trials-1-2","dropoutCode":0,"uuid":"2efb2a9f-5cfe-48fe-9ec1-8b3785646b57","data_type":"tracking:checkpoint"},{"rt":945,"responses":"{\"Q0\":-1}","scenario":"\"apple-1\"","tool":"{}","trial_type":"survey-likert","trial_index":11,"time_elapsed":27004,"internal_node_id":"0.0-11.0","uuid":"2efb2a9f-5cfe-48fe-9ec1-8b3785646b57","data_type":"study:data"},{"description":"trials-1-3","dropoutCode":0,"uuid":"2efb2a9f-5cfe-48fe-9ec1-8b3785646b57","data_type":"tracking:checkpoint"},{"rt":1096,"responses":"{\"Q0\":-1}","scenario":"\"ebay-1\"","tool":"{}","trial_type":"survey-likert","trial_index":14,"time_elapsed":29115,"internal_node_id":"0.0-14.0","uuid":"2efb2a9f-5cfe-48fe-9ec1-8b3785646b57","data_type":"study:data"},{"description":"trials-1-4","dropoutCode":0,"uuid":"2efb2a9f-5cfe-48fe-9ec1-8b3785646b57","data_type":"tracking:checkpoint"},{"rt":1067,"responses":"{\"Q0\":-1}","scenario":"\"instagram\"","tool":"{}","trial_type":"survey-likert","trial_index":17,"time_elapsed":31196,"internal_node_id":"0.0-17.0","uuid":"2efb2a9f-5cfe-48fe-9ec1-8b3785646b57","data_type":"study:data"},{"description":"trials-1-5","dropoutCode":0,"uuid":"2efb2a9f-5cfe-48fe-9ec1-8b3785646b57","data_type":"tracking:checkpoint"},{"rt":506,"responses":"{\"Q0\":-1}","scenario":"\"facebook-2\"","tool":"{}","trial_type":"survey-likert","trial_index":20,"time_elapsed":32736,"internal_node_id":"0.0-20.0","uuid":"2efb2a9f-5cfe-48fe-9ec1-8b3785646b57","data_type":"study:data"},{"description":"mid-trial break","dropoutCode":0,"uuid":"2efb2a9f-5cfe-48fe-9ec1-8b3785646b57","data_type":"tracking:checkpoint"},{"description":"instructions","dropoutCode":0,"uuid":"2efb2a9f-5cfe-48fe-9ec1-8b3785646b57","data_type":"tracking:checkpoint"},{"description":"practice-1","dropoutCode":0,"uuid":"2efb2a9f-5cfe-48fe-9ec1-8b3785646b57","data_type":"tracking:checkpoint"},{"rt":43330,"responses":"{\"Q0\":\"Yes\"}","questions":"[\"bankaccount\"]","website":"\"twitter\"","trial_type":"survey-multi-choice","trial_index":26,"time_elapsed":85724,"internal_node_id":"0.0-26.0","uuid":"2efb2a9f-5cfe-48fe-9ec1-8b3785646b57","data_type":"study:data"},{"description":"pre-trial break","dropoutCode":0,"uuid":"2efb2a9f-5cfe-48fe-9ec1-8b3785646b57","data_type":"tracking:checkpoint"},{"description":"trials-2-1","dropoutCode":0,"uuid":"2efb2a9f-5cfe-48fe-9ec1-8b3785646b57","data_type":"tracking:checkpoint"},{"rt":5346,"responses":"{}","questions":"[null,null,null]","website":"\"ebay\"","trial_type":"survey-multi-choice","trial_index":31,"time_elapsed":95402,"internal_node_id":"0.0-31.0","uuid":"2efb2a9f-5cfe-48fe-9ec1-8b3785646b57","data_type":"study:data"},{"description":"trials-2-2","dropoutCode":0,"uuid":"2efb2a9f-5cfe-48fe-9ec1-8b3785646b57","data_type":"tracking:checkpoint"},{"rt":1069,"responses":"{}","questions":"[null,null,null]","website":"\"wikipedia\"","trial_type":"survey-multi-choice","trial_index":34,"time_elapsed":97493,"internal_node_id":"0.0-34.0","uuid":"2efb2a9f-5cfe-48fe-9ec1-8b3785646b57","data_type":"study:data"},{"description":"trials-2-3","dropoutCode":0,"uuid":"2efb2a9f-5cfe-48fe-9ec1-8b3785646b57","data_type":"tracking:checkpoint"},{"description":"trials-2-4","dropoutCode":0,"uuid":"2efb2a9f-5cfe-48fe-9ec1-8b3785646b57","data_type":"tracking:checkpoint"},{"rt":1898,"responses":"{}","questions":"[null,null,null]","website":"\"google_maps\"","trial_type":"survey-multi-choice","trial_index":37,"time_elapsed":100411,"internal_node_id":"0.0-37.0","uuid":"2efb2a9f-5cfe-48fe-9ec1-8b3785646b57","data_type":"study:data"},{"rt":1288,"responses":"{}","questions":"[null,null,null]","website":"\"apple\"","trial_type":"survey-multi-choice","trial_index":40,"time_elapsed":102716,"internal_node_id":"0.0-40.0","uuid":"2efb2a9f-5cfe-48fe-9ec1-8b3785646b57","data_type":"study:data"},{"description":"trials-2-5","dropoutCode":0,"uuid":"2efb2a9f-5cfe-48fe-9ec1-8b3785646b57","data_type":"tracking:checkpoint"},{"rt":1755,"responses":"{}","questions":"[null,null,null]","website":"\"usagov\"","trial_type":"survey-multi-choice","trial_index":43,"time_elapsed":105490,"internal_node_id":"0.0-43.0","uuid":"2efb2a9f-5cfe-48fe-9ec1-8b3785646b57","data_type":"study:data"},{"description":"mid-trial break","dropoutCode":0,"uuid":"2efb2a9f-5cfe-48fe-9ec1-8b3785646b57","data_type":"tracking:checkpoint"},{"description":"instructions","dropoutCode":0,"uuid":"2efb2a9f-5cfe-48fe-9ec1-8b3785646b57","data_type":"tracking:checkpoint"},{"description":"practice-1","dropoutCode":0,"uuid":"2efb2a9f-5cfe-48fe-9ec1-8b3785646b57","data_type":"tracking:checkpoint"},{"rt":954,"responses":"{\"Q0\":-1}","scenario":"{}","tool":"\"browser\"","trial_type":"survey-likert","trial_index":49,"time_elapsed":114444,"internal_node_id":"0.0-49.0","uuid":"2efb2a9f-5cfe-48fe-9ec1-8b3785646b57","data_type":"study:data"},{"description":"pre-trial break","dropoutCode":0,"uuid":"2efb2a9f-5cfe-48fe-9ec1-8b3785646b57","data_type":"tracking:checkpoint"},{"description":"trials-3-1","dropoutCode":0,"uuid":"2efb2a9f-5cfe-48fe-9ec1-8b3785646b57","data_type":"tracking:checkpoint"},{"rt":931,"responses":"{\"Q0\":-1}","scenario":"{}","tool":"\"adblocker\"","trial_type":"survey-likert","trial_index":54,"time_elapsed":119732,"internal_node_id":"0.0-54.0","uuid":"2efb2a9f-5cfe-48fe-9ec1-8b3785646b57","data_type":"study:data"},{"general-comments":"","technical":"no","technical-comments":"","cheating":"no","cheating-comments":"","uuid":"2efb2a9f-5cfe-48fe-9ec1-8b3785646b57","data_type":"study:comments"},{"description":"irb","dropoutCode":0,"uuid":"5b2bff1c-e55d-4926-aa25-c0c86a03da1e","data_type":"tracking:checkpoint"},{"contentLanguage":"en","city":"not_fetched_or_initialized","country":"not_fetched_or_initialized","uuid":"5b2bff1c-e55d-4926-aa25-c0c86a03da1e","data_type":"litw:initialize"},{"description":"demographics","dropoutCode":0,"uuid":"5b2bff1c-e55d-4926-aa25-c0c86a03da1e","data_type":"tracking:checkpoint"},{"retake":"0","uuid":"5b2bff1c-e55d-4926-aa25-c0c86a03da1e","data_type":"study:demographics"},{"description":"websiteUseSurvey","dropoutCode":0,"uuid":"5b2bff1c-e55d-4926-aa25-c0c86a03da1e","data_type":"tracking:checkpoint"},{"dataType":"websiteUseSurvey","uuid":"5b2bff1c-e55d-4926-aa25-c0c86a03da1e","data_type":"study:data"},{"description":"instructions","dropoutCode":0,"uuid":"5b2bff1c-e55d-4926-aa25-c0c86a03da1e","data_type":"tracking:checkpoint"},{"description":"practice-1","dropoutCode":0,"uuid":"5b2bff1c-e55d-4926-aa25-c0c86a03da1e","data_type":"tracking:checkpoint"},{"rt":4248,"responses":"{\"Q0\":\"1\"}","scenario":"\"scenario-example\"","tool":"{}","trial_type":"survey-likert","trial_index":3,"time_elapsed":48842,"internal_node_id":"0.0-3.0","uuid":"5b2bff1c-e55d-4926-aa25-c0c86a03da1e","data_type":"study:data"},{"description":"pre-trial break","dropoutCode":0,"uuid":"5b2bff1c-e55d-4926-aa25-c0c86a03da1e","data_type":"tracking:checkpoint"},{"description":"trials-1-1","dropoutCode":0,"uuid":"5b2bff1c-e55d-4926-aa25-c0c86a03da1e","data_type":"tracking:checkpoint"},{"rt":1596,"responses":"{\"Q0\":-1}","scenario":"\"amazon-1\"","tool":"{}","trial_type":"survey-likert","trial_index":8,"time_elapsed":54238,"internal_node_id":"0.0-8.0","uuid":"5b2bff1c-e55d-4926-aa25-c0c86a03da1e","data_type":"study:data"},{"description":"trials-1-2","dropoutCode":0,"uuid":"5b2bff1c-e55d-4926-aa25-c0c86a03da1e","data_type":"tracking:checkpoint"},{"rt":879,"responses":"{\"Q0\":-1}","scenario":"\"apple-1\"","tool":"{}","trial_type":"survey-likert","trial_index":11,"time_elapsed":56133,"internal_node_id":"0.0-11.0","uuid":"5b2bff1c-e55d-4926-aa25-c0c86a03da1e","data_type":"study:data"},{"description":"trials-1-3","dropoutCode":0,"uuid":"5b2bff1c-e55d-4926-aa25-c0c86a03da1e","data_type":"tracking:checkpoint"},{"rt":720,"responses":"{\"Q0\":-1}","scenario":"\"facebook-3\"","tool":"{}","trial_type":"survey-likert","trial_index":14,"time_elapsed":57870,"internal_node_id":"0.0-14.0","uuid":"5b2bff1c-e55d-4926-aa25-c0c86a03da1e","data_type":"study:data"},{"description":"trials-1-4","dropoutCode":0,"uuid":"5b2bff1c-e55d-4926-aa25-c0c86a03da1e","data_type":"tracking:checkpoint"},{"rt":712,"responses":"{\"Q0\":-1}","scenario":"\"bbc-1\"","tool":"{}","trial_type":"survey-likert","trial_index":17,"time_elapsed":59597,"internal_node_id":"0.0-17.0","uuid":"5b2bff1c-e55d-4926-aa25-c0c86a03da1e","data_type":"study:data"},{"description":"trials-1-5","dropoutCode":0,"uuid":"5b2bff1c-e55d-4926-aa25-c0c86a03da1e","data_type":"tracking:checkpoint"},{"rt":1287,"responses":"{\"Q0\":-1}","scenario":"\"facebook-1\"","tool":"{}","trial_type":"survey-likert","trial_index":20,"time_elapsed":61901,"internal_node_id":"0.0-20.0","uuid":"5b2bff1c-e55d-4926-aa25-c0c86a03da1e","data_type":"study:data"},{"description":"mid-trial break","dropoutCode":0,"uuid":"5b2bff1c-e55d-4926-aa25-c0c86a03da1e","data_type":"tracking:checkpoint"},{"description":"instructions","dropoutCode":0,"uuid":"5b2bff1c-e55d-4926-aa25-c0c86a03da1e","data_type":"tracking:checkpoint"},{"description":"practice-1","dropoutCode":0,"uuid":"5b2bff1c-e55d-4926-aa25-c0c86a03da1e","data_type":"tracking:checkpoint"},{"description":"pre-trial break","dropoutCode":0,"uuid":"5b2bff1c-e55d-4926-aa25-c0c86a03da1e","data_type":"tracking:checkpoint"},{"rt":4287,"responses":"{\"Q0\":\"Yes\"}","questions":"[null]","website":"\"twitter\"","trial_type":"survey-multi-choice","trial_index":26,"time_elapsed":73538,"internal_node_id":"0.0-26.0","uuid":"5b2bff1c-e55d-4926-aa25-c0c86a03da1e","data_type":"study:data"},{"description":"trials-2-1","dropoutCode":0,"uuid":"5b2bff1c-e55d-4926-aa25-c0c86a03da1e","data_type":"tracking:checkpoint"},{"rt":6077,"responses":"{\"Q0\":\"No\",\"Q1\":\"No\",\"Q2\":\"Maybe\"}","questions":"[null,null,null]","website":"\"gov_uk\"","trial_type":"survey-multi-choice","trial_index":31,"time_elapsed":83455,"internal_node_id":"0.0-31.0","uuid":"5b2bff1c-e55d-4926-aa25-c0c86a03da1e","data_type":"study:data"},{"description":"trials-2-2","dropoutCode":0,"uuid":"5b2bff1c-e55d-4926-aa25-c0c86a03da1e","data_type":"tracking:checkpoint"},{"rt":3524,"responses":"{\"Q0\":\"Yes\",\"Q1\":\"Maybe\",\"Q2\":\"No\"}","questions":"[null,null,null]","website":"\"bbc\"","trial_type":"survey-multi-choice","trial_index":34,"time_elapsed":87998,"internal_node_id":"0.0-34.0","uuid":"5b2bff1c-e55d-4926-aa25-c0c86a03da1e","data_type":"study:data"},{"description":"trials-2-3","dropoutCode":0,"uuid":"5b2bff1c-e55d-4926-aa25-c0c86a03da1e","data_type":"tracking:checkpoint"},{"rt":3037,"responses":"{\"Q0\":\"No\",\"Q1\":\"Yes\",\"Q2\":\"Maybe\"}","questions":"[null,null,null]","website":"\"allrecipes\"","trial_type":"survey-multi-choice","trial_index":37,"time_elapsed":92052,"internal_node_id":"0.0-37.0","uuid":"5b2bff1c-e55d-4926-aa25-c0c86a03da1e","data_type":"study:data"},{"description":"trials-2-4","dropoutCode":0,"uuid":"5b2bff1c-e55d-4926-aa25-c0c86a03da1e","data_type":"tracking:checkpoint"},{"rt":3937,"responses":"{\"Q0\":\"Maybe\",\"Q1\":\"No\",\"Q2\":\"Yes\"}","questions":"[null,null,null]","website":"\"reddit\"","trial_type":"survey-multi-choice","trial_index":40,"time_elapsed":97012,"internal_node_id":"0.0-40.0","uuid":"5b2bff1c-e55d-4926-aa25-c0c86a03da1e","data_type":"study:data"},{"description":"trials-2-5","dropoutCode":0,"uuid":"5b2bff1c-e55d-4926-aa25-c0c86a03da1e","data_type":"tracking:checkpoint"},{"rt":2683,"responses":"{\"Q0\":\"No\",\"Q1\":\"Yes\",\"Q2\":\"No\"}","questions":"[null,null,null]","website":"\"expedia\"","trial_type":"survey-multi-choice","trial_index":43,"time_elapsed":100714,"internal_node_id":"0.0-43.0","uuid":"5b2bff1c-e55d-4926-aa25-c0c86a03da1e","data_type":"study:data"},{"description":"mid-trial break","dropoutCode":0,"uuid":"5b2bff1c-e55d-4926-aa25-c0c86a03da1e","data_type":"tracking:checkpoint"},{"description":"instructions","dropoutCode":0,"uuid":"5b2bff1c-e55d-4926-aa25-c0c86a03da1e","data_type":"tracking:checkpoint"},{"description":"practice-1","dropoutCode":0,"uuid":"5b2bff1c-e55d-4926-aa25-c0c86a03da1e","data_type":"tracking:checkpoint"},{"rt":2237,"responses":"{\"Q0\":\"2\"}","scenario":"{}","tool":"\"browser\"","trial_type":"survey-likert","trial_index":49,"time_elapsed":110541,"internal_node_id":"0.0-49.0","uuid":"5b2bff1c-e55d-4926-aa25-c0c86a03da1e","data_type":"study:data"},{"description":"pre-trial break","dropoutCode":0,"uuid":"5b2bff1c-e55d-4926-aa25-c0c86a03da1e","data_type":"tracking:checkpoint"},{"description":"trials-3-1","dropoutCode":0,"uuid":"5b2bff1c-e55d-4926-aa25-c0c86a03da1e","data_type":"tracking:checkpoint"},{"rt":3175,"responses":"{\"Q0\":\"2\"}","scenario":"{}","tool":"\"adblocker\"","trial_type":"survey-likert","trial_index":54,"time_elapsed":118318,"internal_node_id":"0.0-54.0","uuid":"5b2bff1c-e55d-4926-aa25-c0c86a03da1e","data_type":"study:data"},{"general-comments":"","technical":"no","technical-comments":"","cheating":"no","cheating-comments":"","uuid":"5b2bff1c-e55d-4926-aa25-c0c86a03da1e","data_type":"study:comments"},{"description":"irb","dropoutCode":0,"uuid":"2514f5a1-e492-404d-a573-0686d85e4cc8","data_type":"tracking:checkpoint"},{"contentLanguage":"en","city":"not_fetched_or_initialized","country":"not_fetched_or_initialized","uuid":"2514f5a1-e492-404d-a573-0686d85e4cc8","data_type":"litw:initialize"},{"description":"demographics","dropoutCode":0,"uuid":"2514f5a1-e492-404d-a573-0686d85e4cc8","data_type":"tracking:checkpoint"},{"retake":"0","uuid":"2514f5a1-e492-404d-a573-0686d85e4cc8","data_type":"study:demographics"},{"description":"websiteUseSurvey","dropoutCode":0,"uuid":"2514f5a1-e492-404d-a573-0686d85e4cc8","data_type":"tracking:checkpoint"},{"dataType":"websiteUseSurvey","uuid":"2514f5a1-e492-404d-a573-0686d85e4cc8","data_type":"study:data"},{"description":"instructions","dropoutCode":0,"uuid":"2514f5a1-e492-404d-a573-0686d85e4cc8","data_type":"tracking:checkpoint"},{"description":"practice-1","dropoutCode":0,"uuid":"2514f5a1-e492-404d-a573-0686d85e4cc8","data_type":"tracking:checkpoint"},{"rt":1178,"responses":"{\"Q0\":-1}","scenario":"\"scenario-example\"","tool":"{}","trial_type":"survey-likert","trial_index":3,"time_elapsed":9471,"internal_node_id":"0.0-3.0","uuid":"2514f5a1-e492-404d-a573-0686d85e4cc8","data_type":"study:data"},{"description":"pre-trial break","dropoutCode":0,"uuid":"2514f5a1-e492-404d-a573-0686d85e4cc8","data_type":"tracking:checkpoint"},{"description":"trials-1-1","dropoutCode":0,"uuid":"2514f5a1-e492-404d-a573-0686d85e4cc8","data_type":"tracking:checkpoint"},{"rt":1353,"responses":"{\"Q0\":-1}","scenario":"\"accuweather-facebook\"","tool":"{}","trial_type":"survey-likert","trial_index":8,"time_elapsed":14734,"internal_node_id":"0.0-8.0","uuid":"2514f5a1-e492-404d-a573-0686d85e4cc8","data_type":"study:data"},{"description":"trials-1-2","dropoutCode":0,"uuid":"2514f5a1-e492-404d-a573-0686d85e4cc8","data_type":"tracking:checkpoint"},{"rt":793,"responses":"{\"Q0\":-1}","scenario":"\"bbc-2\"","tool":"{}","trial_type":"survey-likert","trial_index":11,"time_elapsed":16541,"internal_node_id":"0.0-11.0","uuid":"2514f5a1-e492-404d-a573-0686d85e4cc8","data_type":"study:data"},{"description":"trials-1-3","dropoutCode":0,"uuid":"2514f5a1-e492-404d-a573-0686d85e4cc8","data_type":"tracking:checkpoint"},{"rt":849,"responses":"{\"Q0\":-1}","scenario":"\"ebay-1\"","tool":"{}","trial_type":"survey-likert","trial_index":14,"time_elapsed":18406,"internal_node_id":"0.0-14.0","uuid":"2514f5a1-e492-404d-a573-0686d85e4cc8","data_type":"study:data"},{"description":"trials-1-4","dropoutCode":0,"uuid":"2514f5a1-e492-404d-a573-0686d85e4cc8","data_type":"tracking:checkpoint"},{"rt":1232,"responses":"{\"Q0\":-1}","scenario":"\"allrecipes\"","tool":"{}","trial_type":"survey-likert","trial_index":17,"time_elapsed":20653,"internal_node_id":"0.0-17.0","uuid":"2514f5a1-e492-404d-a573-0686d85e4cc8","data_type":"study:data"},{"description":"trials-1-5","dropoutCode":0,"uuid":"2514f5a1-e492-404d-a573-0686d85e4cc8","data_type":"tracking:checkpoint"},{"rt":1314,"responses":"{\"Q0\":-1}","scenario":"\"amazon-2\"","tool":"{}","trial_type":"survey-likert","trial_index":20,"time_elapsed":22983,"internal_node_id":"0.0-20.0","uuid":"2514f5a1-e492-404d-a573-0686d85e4cc8","data_type":"study:data"},{"description":"mid-trial break","dropoutCode":0,"uuid":"2514f5a1-e492-404d-a573-0686d85e4cc8","data_type":"tracking:checkpoint"},{"description":"instructions","dropoutCode":0,"uuid":"2514f5a1-e492-404d-a573-0686d85e4cc8","data_type":"tracking:checkpoint"},{"description":"practice-1","dropoutCode":0,"uuid":"2514f5a1-e492-404d-a573-0686d85e4cc8","data_type":"tracking:checkpoint"},{"rt":3283,"responses":"{}","questions":"[null]","website":"\"twitter\"","trial_type":"survey-multi-choice","trial_index":26,"time_elapsed":60081,"internal_node_id":"0.0-26.0","uuid":"2514f5a1-e492-404d-a573-0686d85e4cc8","data_type":"study:data"},{"description":"pre-trial break","dropoutCode":0,"uuid":"2514f5a1-e492-404d-a573-0686d85e4cc8","data_type":"tracking:checkpoint"},{"description":"trials-2-1","dropoutCode":0,"uuid":"2514f5a1-e492-404d-a573-0686d85e4cc8","data_type":"tracking:checkpoint"},{"rt":1367,"responses":"{}","questions":"[null,null,null]","website":"\"wikipedia\"","trial_type":"survey-multi-choice","trial_index":31,"time_elapsed":65610,"internal_node_id":"0.0-31.0","uuid":"2514f5a1-e492-404d-a573-0686d85e4cc8","data_type":"study:data"},{"description":"trials-2-2","dropoutCode":0,"uuid":"2514f5a1-e492-404d-a573-0686d85e4cc8","data_type":"tracking:checkpoint"},{"rt":24225,"responses":"{}","questions":"[null,null,null]","website":"\"ebay\"","trial_type":"survey-multi-choice","trial_index":34,"time_elapsed":90858,"internal_node_id":"0.0-34.0","uuid":"2514f5a1-e492-404d-a573-0686d85e4cc8","data_type":"study:data"},{"description":"trials-2-3","dropoutCode":0,"uuid":"2514f5a1-e492-404d-a573-0686d85e4cc8","data_type":"tracking:checkpoint"},{"rt":2022,"responses":"{}","questions":"[null,null,null]","website":"\"bbc\"","trial_type":"survey-multi-choice","trial_index":37,"time_elapsed":93902,"internal_node_id":"0.0-37.0","uuid":"2514f5a1-e492-404d-a573-0686d85e4cc8","data_type":"study:data"},{"description":"trials-2-4","dropoutCode":0,"uuid":"2514f5a1-e492-404d-a573-0686d85e4cc8","data_type":"tracking:checkpoint"},{"rt":1133,"responses":"{}","questions":"[null,null,null]","website":"\"allrecipes\"","trial_type":"survey-multi-choice","trial_index":40,"time_elapsed":96052,"internal_node_id":"0.0-40.0","uuid":"2514f5a1-e492-404d-a573-0686d85e4cc8","data_type":"study:data"},{"description":"trials-2-5","dropoutCode":0,"uuid":"2514f5a1-e492-404d-a573-0686d85e4cc8","data_type":"tracking:checkpoint"},{"rt":903,"responses":"{}","questions":"[null,null,null]","website":"\"twitter\"","trial_type":"survey-multi-choice","trial_index":43,"time_elapsed":97980,"internal_node_id":"0.0-43.0","uuid":"2514f5a1-e492-404d-a573-0686d85e4cc8","data_type":"study:data"},{"description":"mid-trial break","dropoutCode":0,"uuid":"2514f5a1-e492-404d-a573-0686d85e4cc8","data_type":"tracking:checkpoint"},{"description":"instructions","dropoutCode":0,"uuid":"2514f5a1-e492-404d-a573-0686d85e4cc8","data_type":"tracking:checkpoint"},{"description":"practice-1","dropoutCode":0,"uuid":"2514f5a1-e492-404d-a573-0686d85e4cc8","data_type":"tracking:checkpoint"},{"description":"irb","dropoutCode":0,"uuid":"d135c413-01f5-43cd-985f-eff5fe0466c3","data_type":"tracking:checkpoint"},{"contentLanguage":"en","city":"not_fetched_or_initialized","country":"not_fetched_or_initialized","uuid":"d135c413-01f5-43cd-985f-eff5fe0466c3","data_type":"litw:initialize"},{"description":"demographics","dropoutCode":0,"uuid":"d135c413-01f5-43cd-985f-eff5fe0466c3","data_type":"tracking:checkpoint"},{"description":"irb","dropoutCode":0,"uuid":"fc757c6c-6185-4631-a391-ce26e378f703","data_type":"tracking:checkpoint"},{"contentLanguage":"en","city":"not_fetched_or_initialized","country":"not_fetched_or_initialized","uuid":"fc757c6c-6185-4631-a391-ce26e378f703","data_type":"litw:initialize"},{"description":"demographics","dropoutCode":0,"uuid":"fc757c6c-6185-4631-a391-ce26e378f703","data_type":"tracking:checkpoint"},{"retake":"0","country0":"Algeria","uuid":"fc757c6c-6185-4631-a391-ce26e378f703","data_type":"study:demographics"},{"description":"websiteUseSurvey","dropoutCode":0,"uuid":"fc757c6c-6185-4631-a391-ce26e378f703","data_type":"tracking:checkpoint"},{"dataType":"websiteUseSurvey","uuid":"fc757c6c-6185-4631-a391-ce26e378f703","data_type":"study:data"},{"description":"instructions","dropoutCode":0,"uuid":"fc757c6c-6185-4631-a391-ce26e378f703","data_type":"tracking:checkpoint"},{"description":"practice-1","dropoutCode":0,"uuid":"fc757c6c-6185-4631-a391-ce26e378f703","data_type":"tracking:checkpoint"},{"rt":2570,"responses":"{\"Q0\":\"1\"}","scenario":"\"scenario-example\"","tool":"{}","trial_type":"survey-likert","trial_index":3,"time_elapsed":9800,"internal_node_id":"0.0-3.0","uuid":"fc757c6c-6185-4631-a391-ce26e378f703","data_type":"study:data"},{"description":"pre-trial break","dropoutCode":0,"uuid":"fc757c6c-6185-4631-a391-ce26e378f703","data_type":"tracking:checkpoint"},{"description":"trials-1-1","dropoutCode":0,"uuid":"fc757c6c-6185-4631-a391-ce26e378f703","data_type":"tracking:checkpoint"},{"rt":1885,"responses":"{\"Q0\":\"2\"}","scenario":"{}","tool":"{}","trial_type":"survey-likert","trial_index":8,"time_elapsed":15437,"internal_node_id":"0.0-8.0","uuid":"fc757c6c-6185-4631-a391-ce26e378f703","data_type":"study:data"},{"description":"trials-1-2","dropoutCode":0,"uuid":"fc757c6c-6185-4631-a391-ce26e378f703","data_type":"tracking:checkpoint"},{"rt":2735,"responses":"{\"Q0\":\"1\"}","scenario":"\"allrecipes\"","tool":"{}","trial_type":"survey-likert","trial_index":11,"time_elapsed":19190,"internal_node_id":"0.0-11.0","uuid":"fc757c6c-6185-4631-a391-ce26e378f703","data_type":"study:data"},{"description":"trials-1-3","dropoutCode":0,"uuid":"fc757c6c-6185-4631-a391-ce26e378f703","data_type":"tracking:checkpoint"},{"rt":1793,"responses":"{\"Q0\":\"3\"}","scenario":"\"facebook-3\"","tool":"{}","trial_type":"survey-likert","trial_index":14,"time_elapsed":21998,"internal_node_id":"0.0-14.0","uuid":"fc757c6c-6185-4631-a391-ce26e378f703","data_type":"study:data"},{"description":"trials-1-4","dropoutCode":0,"uuid":"fc757c6c-6185-4631-a391-ce26e378f703","data_type":"tracking:checkpoint"},{"rt":1234,"responses":"{\"Q0\":\"1\"}","scenario":"\"dictionary-2\"","tool":"{}","trial_type":"survey-likert","trial_index":17,"time_elapsed":24247,"internal_node_id":"0.0-17.0","uuid":"fc757c6c-6185-4631-a391-ce26e378f703","data_type":"study:data"},{"description":"trials-1-5","dropoutCode":0,"uuid":"fc757c6c-6185-4631-a391-ce26e378f703","data_type":"tracking:checkpoint"},{"rt":1549,"responses":"{\"Q0\":\"4\"}","scenario":"\"bbc-1\"","tool":"{}","trial_type":"survey-likert","trial_index":20,"time_elapsed":26814,"internal_node_id":"0.0-20.0","uuid":"fc757c6c-6185-4631-a391-ce26e378f703","data_type":"study:data"},{"description":"mid-trial break","dropoutCode":0,"uuid":"fc757c6c-6185-4631-a391-ce26e378f703","data_type":"tracking:checkpoint"},{"description":"instructions","dropoutCode":0,"uuid":"fc757c6c-6185-4631-a391-ce26e378f703","data_type":"tracking:checkpoint"},{"description":"practice-1","dropoutCode":0,"uuid":"fc757c6c-6185-4631-a391-ce26e378f703","data_type":"tracking:checkpoint"},{"rt":15734,"responses":"{\"Q0\":\"Yes\"}","questions":"[null]","website":"\"twitter\"","trial_type":"survey-multi-choice","trial_index":26,"time_elapsed":51295,"internal_node_id":"0.0-26.0","uuid":"fc757c6c-6185-4631-a391-ce26e378f703","data_type":"study:data"},{"description":"pre-trial break","dropoutCode":0,"uuid":"fc757c6c-6185-4631-a391-ce26e378f703","data_type":"tracking:checkpoint"},{"description":"trials-2-1","dropoutCode":0,"uuid":"fc757c6c-6185-4631-a391-ce26e378f703","data_type":"tracking:checkpoint"},{"rt":19056,"responses":"{\"Q0\":\"Yes\",\"Q1\":\"No\",\"Q2\":\"No\"}","questions":"[null,null,null]","website":"\"craiglist\"","trial_type":"survey-multi-choice","trial_index":31,"time_elapsed":74393,"internal_node_id":"0.0-31.0","uuid":"fc757c6c-6185-4631-a391-ce26e378f703","data_type":"study:data"},{"description":"trials-2-2","dropoutCode":0,"uuid":"fc757c6c-6185-4631-a391-ce26e378f703","data_type":"tracking:checkpoint"},{"rt":5549,"responses":"{\"Q0\":\"Yes\",\"Q1\":\"Yes\",\"Q2\":\"Yes\"}","questions":"[null,null,null]","website":"\"yahoo\"","trial_type":"survey-multi-choice","trial_index":34,"time_elapsed":80962,"internal_node_id":"0.0-34.0","uuid":"fc757c6c-6185-4631-a391-ce26e378f703","data_type":"study:data"},{"description":"trials-2-3","dropoutCode":0,"uuid":"fc757c6c-6185-4631-a391-ce26e378f703","data_type":"tracking:checkpoint"},{"rt":5590,"responses":"{\"Q0\":\"Yes\",\"Q1\":\"No\",\"Q2\":\"Yes\"}","questions":"[null,null,null]","website":"\"allrecipes\"","trial_type":"survey-multi-choice","trial_index":37,"time_elapsed":87572,"internal_node_id":"0.0-37.0","uuid":"fc757c6c-6185-4631-a391-ce26e378f703","data_type":"study:data"},{"description":"trials-2-4","dropoutCode":0,"uuid":"fc757c6c-6185-4631-a391-ce26e378f703","data_type":"tracking:checkpoint"},{"rt":8637,"responses":"{\"Q0\":\"Yes\",\"Q1\":\"No\",\"Q2\":\"Maybe\"}","questions":"[null,null,null]","website":"\"ny_times\"","trial_type":"survey-multi-choice","trial_index":40,"time_elapsed":97229,"internal_node_id":"0.0-40.0","uuid":"fc757c6c-6185-4631-a391-ce26e378f703","data_type":"study:data"},{"description":"trials-2-5","dropoutCode":0,"uuid":"fc757c6c-6185-4631-a391-ce26e378f703","data_type":"tracking:checkpoint"},{"rt":10755,"responses":"{\"Q0\":\"Yes\",\"Q1\":\"Yes\",\"Q2\":\"Yes\"}","questions":"[null,null,null]","website":"\"dictionary\"","trial_type":"survey-multi-choice","trial_index":43,"time_elapsed":109003,"internal_node_id":"0.0-43.0","uuid":"fc757c6c-6185-4631-a391-ce26e378f703","data_type":"study:data"},{"description":"mid-trial break","dropoutCode":0,"uuid":"fc757c6c-6185-4631-a391-ce26e378f703","data_type":"tracking:checkpoint"},{"description":"instructions","dropoutCode":0,"uuid":"fc757c6c-6185-4631-a391-ce26e378f703","data_type":"tracking:checkpoint"},{"description":"practice-1","dropoutCode":0,"uuid":"fc757c6c-6185-4631-a391-ce26e378f703","data_type":"tracking:checkpoint"},{"rt":8545,"responses":"{\"Q0\":\"I use this tool <strong>currently</strong>\"}","questions":"[null]","website":"{}","trial_type":"survey-multi-choice","trial_index":49,"time_elapsed":124643,"internal_node_id":"0.0-49.0","uuid":"fc757c6c-6185-4631-a391-ce26e378f703","data_type":"study:data"},{"description":"pre-trial break","dropoutCode":0,"uuid":"fc757c6c-6185-4631-a391-ce26e378f703","data_type":"tracking:checkpoint"},{"description":"trials-3-1","dropoutCode":0,"uuid":"fc757c6c-6185-4631-a391-ce26e378f703","data_type":"tracking:checkpoint"},{"rt":3045,"responses":"{\"Q0\":\"1\"}","scenario":"{}","tool":"\"adblocker\"","trial_type":"survey-likert","trial_index":54,"time_elapsed":131750,"internal_node_id":"0.0-54.0","uuid":"fc757c6c-6185-4631-a391-ce26e378f703","data_type":"study:data"},{"general-comments":"","technical":"no","technical-comments":"","cheating":"no","cheating-comments":"","uuid":"fc757c6c-6185-4631-a391-ce26e378f703","data_type":"study:comments"},{"description":"irb","dropoutCode":0,"uuid":"c0e22e1e-5b00-40e0-8ac9-edfbccbe5015","data_type":"tracking:checkpoint"},{"contentLanguage":"en","city":"not_fetched_or_initialized","country":"not_fetched_or_initialized","uuid":"c0e22e1e-5b00-40e0-8ac9-edfbccbe5015","data_type":"litw:initialize"},{"description":"irb","dropoutCode":0,"uuid":"9c34e042-059d-42bd-a873-c3dad614f55e","data_type":"tracking:checkpoint"},{"contentLanguage":"en","city":"not_fetched_or_initialized","country":"not_fetched_or_initialized","uuid":"9c34e042-059d-42bd-a873-c3dad614f55e","data_type":"litw:initialize"},{"description":"irb","dropoutCode":0,"uuid":"514f9479-1927-4473-8ac7-60f36fe01196","data_type":"tracking:checkpoint"},{"contentLanguage":"en","city":"not_fetched_or_initialized","country":"not_fetched_or_initialized","uuid":"514f9479-1927-4473-8ac7-60f36fe01196","data_type":"litw:initialize"},{"description":"irb","dropoutCode":0,"uuid":"68a1b2c0-713e-4666-a80e-55583d1d9ae7","data_type":"tracking:checkpoint"},{"contentLanguage":"en","city":"not_fetched_or_initialized","country":"not_fetched_or_initialized","uuid":"68a1b2c0-713e-4666-a80e-55583d1d9ae7","data_type":"litw:initialize"},{"description":"demographics","dropoutCode":0,"uuid":"68a1b2c0-713e-4666-a80e-55583d1d9ae7","data_type":"tracking:checkpoint"},{"retake":"0","country0":"Antigua And Barbuda","uuid":"68a1b2c0-713e-4666-a80e-55583d1d9ae7","data_type":"study:demographics"},{"description":"websiteUseSurvey","dropoutCode":0,"uuid":"68a1b2c0-713e-4666-a80e-55583d1d9ae7","data_type":"tracking:checkpoint"},{"dataType":"websiteUseSurvey","uuid":"68a1b2c0-713e-4666-a80e-55583d1d9ae7","data_type":"study:data"},{"description":"instructions","dropoutCode":0,"uuid":"68a1b2c0-713e-4666-a80e-55583d1d9ae7","data_type":"tracking:checkpoint"},{"description":"practice-1","dropoutCode":0,"uuid":"68a1b2c0-713e-4666-a80e-55583d1d9ae7","data_type":"tracking:checkpoint"},{"rt":1965,"responses":"{\"Q0\":\"0\"}","scenario":"\"scenario-example\"","tool":"{}","trial_type":"survey-likert","trial_index":3,"time_elapsed":9637,"internal_node_id":"0.0-3.0","uuid":"68a1b2c0-713e-4666-a80e-55583d1d9ae7","data_type":"study:data"},{"description":"pre-trial break","dropoutCode":0,"uuid":"68a1b2c0-713e-4666-a80e-55583d1d9ae7","data_type":"tracking:checkpoint"},{"description":"trials-1-1","dropoutCode":0,"uuid":"68a1b2c0-713e-4666-a80e-55583d1d9ae7","data_type":"tracking:checkpoint"},{"rt":1722,"responses":"{\"Q0\":\"1\"}","scenario":"\"apple-2\"","tool":"{}","trial_type":"survey-likert","trial_index":8,"time_elapsed":15660,"internal_node_id":"0.0-8.0","uuid":"68a1b2c0-713e-4666-a80e-55583d1d9ae7","data_type":"study:data"},{"description":"trials-1-2","dropoutCode":0,"uuid":"68a1b2c0-713e-4666-a80e-55583d1d9ae7","data_type":"tracking:checkpoint"},{"rt":2064,"responses":"{\"Q0\":\"2\"}","scenario":"\"facebook-3\"","tool":"{}","trial_type":"survey-likert","trial_index":11,"time_elapsed":18739,"internal_node_id":"0.0-11.0","uuid":"68a1b2c0-713e-4666-a80e-55583d1d9ae7","data_type":"study:data"},{"description":"trials-1-3","dropoutCode":0,"uuid":"68a1b2c0-713e-4666-a80e-55583d1d9ae7","data_type":"tracking:checkpoint"},{"rt":2712,"responses":"{\"Q0\":\"3\"}","scenario":"\"amazon-3\"","tool":"{}","trial_type":"survey-likert","trial_index":14,"time_elapsed":22467,"internal_node_id":"0.0-14.0","uuid":"68a1b2c0-713e-4666-a80e-55583d1d9ae7","data_type":"study:data"},{"description":"trials-1-4","dropoutCode":0,"uuid":"68a1b2c0-713e-4666-a80e-55583d1d9ae7","data_type":"tracking:checkpoint"},{"rt":1803,"responses":"{\"Q0\":\"1\"}","scenario":"\"allrecipes\"","tool":"{}","trial_type":"survey-likert","trial_index":17,"time_elapsed":25283,"internal_node_id":"0.0-17.0","uuid":"68a1b2c0-713e-4666-a80e-55583d1d9ae7","data_type":"study:data"},{"description":"trials-1-5","dropoutCode":0,"uuid":"68a1b2c0-713e-4666-a80e-55583d1d9ae7","data_type":"tracking:checkpoint"},{"rt":4252,"responses":"{\"Q0\":\"4\"}","scenario":"{}","tool":"{}","trial_type":"survey-likert","trial_index":20,"time_elapsed":30547,"internal_node_id":"0.0-20.0","uuid":"68a1b2c0-713e-4666-a80e-55583d1d9ae7","data_type":"study:data"},{"description":"mid-trial break","dropoutCode":0,"uuid":"68a1b2c0-713e-4666-a80e-55583d1d9ae7","data_type":"tracking:checkpoint"},{"description":"instructions","dropoutCode":0,"uuid":"68a1b2c0-713e-4666-a80e-55583d1d9ae7","data_type":"tracking:checkpoint"},{"description":"practice-1","dropoutCode":0,"uuid":"68a1b2c0-713e-4666-a80e-55583d1d9ae7","data_type":"tracking:checkpoint"},{"rt":2340,"responses":"{\"Q0\":\"Yes\"}","questions":"[null]","website":"\"twitter\"","trial_type":"survey-multi-choice","trial_index":26,"time_elapsed":50297,"internal_node_id":"0.0-26.0","uuid":"68a1b2c0-713e-4666-a80e-55583d1d9ae7","data_type":"study:data"},{"description":"pre-trial break","dropoutCode":0,"uuid":"68a1b2c0-713e-4666-a80e-55583d1d9ae7","data_type":"tracking:checkpoint"},{"description":"trials-2-1","dropoutCode":0,"uuid":"68a1b2c0-713e-4666-a80e-55583d1d9ae7","data_type":"tracking:checkpoint"},{"rt":7397,"responses":"{\"Q0\":\"No\",\"Q1\":\"Yes\",\"Q2\":\"Yes\"}","questions":"[null,null,null]","website":"\"google_play\"","trial_type":"survey-multi-choice","trial_index":31,"time_elapsed":61575,"internal_node_id":"0.0-31.0","uuid":"68a1b2c0-713e-4666-a80e-55583d1d9ae7","data_type":"study:data"},{"description":"trials-2-2","dropoutCode":0,"uuid":"68a1b2c0-713e-4666-a80e-55583d1d9ae7","data_type":"tracking:checkpoint"},{"rt":7290,"responses":"{\"Q0\":\"No\",\"Q1\":\"Maybe\",\"Q2\":\"Maybe\"}","questions":"[null,null,null]","website":"\"linkedin\"","trial_type":"survey-multi-choice","trial_index":34,"time_elapsed":69891,"internal_node_id":"0.0-34.0","uuid":"68a1b2c0-713e-4666-a80e-55583d1d9ae7","data_type":"study:data"},{"description":"trials-2-3","dropoutCode":0,"uuid":"68a1b2c0-713e-4666-a80e-55583d1d9ae7","data_type":"tracking:checkpoint"},{"rt":8527,"responses":"{\"Q0\":\"Maybe\",\"Q1\":\"No\",\"Q2\":\"No\"}","questions":"[null,null,null]","website":"\"tripadvisor\"","trial_type":"survey-multi-choice","trial_index":37,"time_elapsed":79441,"internal_node_id":"0.0-37.0","uuid":"68a1b2c0-713e-4666-a80e-55583d1d9ae7","data_type":"study:data"},{"description":"trials-2-4","dropoutCode":0,"uuid":"68a1b2c0-713e-4666-a80e-55583d1d9ae7","data_type":"tracking:checkpoint"},{"rt":7781,"responses":"{\"Q0\":\"Yes\",\"Q1\":\"Yes\",\"Q2\":\"Yes\"}","questions":"[null,null,null]","website":"\"amazon\"","trial_type":"survey-multi-choice","trial_index":40,"time_elapsed":88243,"internal_node_id":"0.0-40.0","uuid":"68a1b2c0-713e-4666-a80e-55583d1d9ae7","data_type":"study:data"},{"description":"trials-2-5","dropoutCode":0,"uuid":"68a1b2c0-713e-4666-a80e-55583d1d9ae7","data_type":"tracking:checkpoint"},{"rt":6265,"responses":"{\"Q0\":\"Yes\",\"Q1\":\"Maybe\",\"Q2\":\"No\"}","questions":"[null,null,null]","website":"\"ny_times\"","trial_type":"survey-multi-choice","trial_index":43,"time_elapsed":95530,"internal_node_id":"0.0-43.0","uuid":"68a1b2c0-713e-4666-a80e-55583d1d9ae7","data_type":"study:data"},{"description":"mid-trial break","dropoutCode":0,"uuid":"68a1b2c0-713e-4666-a80e-55583d1d9ae7","data_type":"tracking:checkpoint"},{"description":"instructions","dropoutCode":0,"uuid":"68a1b2c0-713e-4666-a80e-55583d1d9ae7","data_type":"tracking:checkpoint"},{"description":"practice-1","dropoutCode":0,"uuid":"68a1b2c0-713e-4666-a80e-55583d1d9ae7","data_type":"tracking:checkpoint"},{"description":"pre-trial break","dropoutCode":0,"uuid":"68a1b2c0-713e-4666-a80e-55583d1d9ae7","data_type":"tracking:checkpoint"},{"rt":3029,"responses":"{\"Q0\":\"I don't use this tool currently but <strong>I would be</strong> willing to use it\"}","questions":"[null]","website":"{}","trial_type":"survey-multi-choice","trial_index":49,"time_elapsed":107090,"internal_node_id":"0.0-49.0","uuid":"68a1b2c0-713e-4666-a80e-55583d1d9ae7","data_type":"study:data"},{"description":"trials-3-1","dropoutCode":0,"uuid":"68a1b2c0-713e-4666-a80e-55583d1d9ae7","data_type":"tracking:checkpoint"},{"rt":1801,"responses":"{\"Q0\":\"2\"}","scenario":"{}","tool":"\"adblocker\"","trial_type":"survey-likert","trial_index":54,"time_elapsed":112764,"internal_node_id":"0.0-54.0","uuid":"68a1b2c0-713e-4666-a80e-55583d1d9ae7","data_type":"study:data"},{"general-comments":"","technical":"no","technical-comments":"","cheating":"no","cheating-comments":"","uuid":"68a1b2c0-713e-4666-a80e-55583d1d9ae7","data_type":"study:comments"},{"description":"irb","dropoutCode":0,"uuid":"3b1a8a90-ba31-4bda-9365-c08c77089681","data_type":"tracking:checkpoint"},{"contentLanguage":"en","city":"not_fetched_or_initialized","country":"not_fetched_or_initialized","uuid":"3b1a8a90-ba31-4bda-9365-c08c77089681","data_type":"litw:initialize"},{"description":"demographics","dropoutCode":0,"uuid":"3b1a8a90-ba31-4bda-9365-c08c77089681","data_type":"tracking:checkpoint"},{"retake":"0","country0":"Bahrain","uuid":"3b1a8a90-ba31-4bda-9365-c08c77089681","data_type":"study:demographics"},{"description":"websiteUseSurvey","dropoutCode":0,"uuid":"3b1a8a90-ba31-4bda-9365-c08c77089681","data_type":"tracking:checkpoint"},{"dataType":"websiteUseSurvey","uuid":"3b1a8a90-ba31-4bda-9365-c08c77089681","data_type":"study:data"},{"description":"instructions","dropoutCode":0,"uuid":"3b1a8a90-ba31-4bda-9365-c08c77089681","data_type":"tracking:checkpoint"},{"description":"practice-1","dropoutCode":0,"uuid":"3b1a8a90-ba31-4bda-9365-c08c77089681","data_type":"tracking:checkpoint"},{"rt":8546,"responses":"{\"Q0\":\"1\"}","scenario":"\"scenario-example\"","tool":"{}","trial_type":"survey-likert","trial_index":3,"time_elapsed":16547,"internal_node_id":"0.0-3.0","uuid":"3b1a8a90-ba31-4bda-9365-c08c77089681","data_type":"study:data"},{"description":"pre-trial break","dropoutCode":0,"uuid":"3b1a8a90-ba31-4bda-9365-c08c77089681","data_type":"tracking:checkpoint"},{"description":"trials-1-1","dropoutCode":0,"uuid":"3b1a8a90-ba31-4bda-9365-c08c77089681","data_type":"tracking:checkpoint"},{"rt":1450,"responses":"{\"Q0\":\"2\"}","scenario":"\"dictionary-1\"","tool":"{}","trial_type":"survey-likert","trial_index":8,"time_elapsed":22258,"internal_node_id":"0.0-8.0","uuid":"3b1a8a90-ba31-4bda-9365-c08c77089681","data_type":"study:data"},{"description":"trials-1-2","dropoutCode":0,"uuid":"3b1a8a90-ba31-4bda-9365-c08c77089681","data_type":"tracking:checkpoint"},{"rt":2114,"responses":"{\"Q0\":\"1\"}","scenario":"\"ebay-2\"","tool":"{}","trial_type":"survey-likert","trial_index":11,"time_elapsed":25385,"internal_node_id":"0.0-11.0","uuid":"3b1a8a90-ba31-4bda-9365-c08c77089681","data_type":"study:data"},{"description":"trials-1-3","dropoutCode":0,"uuid":"3b1a8a90-ba31-4bda-9365-c08c77089681","data_type":"tracking:checkpoint"},{"rt":1993,"responses":"{\"Q0\":\"3\"}","scenario":"\"expedia-facebook\"","tool":"{}","trial_type":"survey-likert","trial_index":14,"time_elapsed":28393,"internal_node_id":"0.0-14.0","uuid":"3b1a8a90-ba31-4bda-9365-c08c77089681","data_type":"study:data"},{"description":"trials-1-4","dropoutCode":0,"uuid":"3b1a8a90-ba31-4bda-9365-c08c77089681","data_type":"tracking:checkpoint"},{"rt":4546,"responses":"{\"Q0\":\"1\"}","scenario":"{}","tool":"{}","trial_type":"survey-likert","trial_index":17,"time_elapsed":33952,"internal_node_id":"0.0-17.0","uuid":"3b1a8a90-ba31-4bda-9365-c08c77089681","data_type":"study:data"},{"description":"trials-1-5","dropoutCode":0,"uuid":"3b1a8a90-ba31-4bda-9365-c08c77089681","data_type":"tracking:checkpoint"},{"rt":1307,"responses":"{\"Q0\":\"1\"}","scenario":"\"apple-1\"","tool":"{}","trial_type":"survey-likert","trial_index":20,"time_elapsed":36273,"internal_node_id":"0.0-20.0","uuid":"3b1a8a90-ba31-4bda-9365-c08c77089681","data_type":"study:data"},{"description":"mid-trial break","dropoutCode":0,"uuid":"3b1a8a90-ba31-4bda-9365-c08c77089681","data_type":"tracking:checkpoint"},{"description":"instructions","dropoutCode":0,"uuid":"3b1a8a90-ba31-4bda-9365-c08c77089681","data_type":"tracking:checkpoint"},{"description":"practice-1","dropoutCode":0,"uuid":"3b1a8a90-ba31-4bda-9365-c08c77089681","data_type":"tracking:checkpoint"},{"rt":2343,"responses":"{\"Q0\":\"Yes\"}","questions":"[null]","website":"\"twitter\"","trial_type":"survey-multi-choice","trial_index":26,"time_elapsed":51084,"internal_node_id":"0.0-26.0","uuid":"3b1a8a90-ba31-4bda-9365-c08c77089681","data_type":"study:data"},{"description":"pre-trial break","dropoutCode":0,"uuid":"3b1a8a90-ba31-4bda-9365-c08c77089681","data_type":"tracking:checkpoint"},{"description":"trials-2-1","dropoutCode":0,"uuid":"3b1a8a90-ba31-4bda-9365-c08c77089681","data_type":"tracking:checkpoint"},{"rt":4535,"responses":"{\"Q0\":\"Yes\",\"Q1\":\"Yes\",\"Q2\":\"No\"}","questions":"[null,null,null]","website":"\"craiglist\"","trial_type":"survey-multi-choice","trial_index":31,"time_elapsed":59830,"internal_node_id":"0.0-31.0","uuid":"3b1a8a90-ba31-4bda-9365-c08c77089681","data_type":"study:data"},{"description":"trials-2-2","dropoutCode":0,"uuid":"3b1a8a90-ba31-4bda-9365-c08c77089681","data_type":"tracking:checkpoint"},{"rt":3619,"responses":"{\"Q0\":\"No\",\"Q1\":\"Maybe\",\"Q2\":\"No\"}","questions":"[null,null,null]","website":"\"facebook\"","trial_type":"survey-multi-choice","trial_index":34,"time_elapsed":64481,"internal_node_id":"0.0-34.0","uuid":"3b1a8a90-ba31-4bda-9365-c08c77089681","data_type":"study:data"},{"description":"trials-2-3","dropoutCode":0,"uuid":"3b1a8a90-ba31-4bda-9365-c08c77089681","data_type":"tracking:checkpoint"},{"rt":3399,"responses":"{\"Q0\":\"No\",\"Q1\":\"No\",\"Q2\":\"No\"}","questions":"[null,null,null]","website":"\"usagov\"","trial_type":"survey-multi-choice","trial_index":37,"time_elapsed":68904,"internal_node_id":"0.0-37.0","uuid":"3b1a8a90-ba31-4bda-9365-c08c77089681","data_type":"study:data"},{"description":"trials-2-4","dropoutCode":0,"uuid":"3b1a8a90-ba31-4bda-9365-c08c77089681","data_type":"tracking:checkpoint"},{"rt":2906,"responses":"{\"Q0\":\"No\",\"Q1\":\"No\",\"Q2\":\"No\"}","questions":"[null,null,null]","website":"\"apple\"","trial_type":"survey-multi-choice","trial_index":40,"time_elapsed":72832,"internal_node_id":"0.0-40.0","uuid":"3b1a8a90-ba31-4bda-9365-c08c77089681","data_type":"study:data"},{"description":"trials-2-5","dropoutCode":0,"uuid":"3b1a8a90-ba31-4bda-9365-c08c77089681","data_type":"tracking:checkpoint"},{"rt":4641,"responses":"{\"Q0\":\"No\",\"Q1\":\"Maybe\",\"Q2\":\"No\"}","questions":"[null,null,null]","website":"\"gmail\"","trial_type":"survey-multi-choice","trial_index":43,"time_elapsed":78495,"internal_node_id":"0.0-43.0","uuid":"3b1a8a90-ba31-4bda-9365-c08c77089681","data_type":"study:data"},{"description":"mid-trial break","dropoutCode":0,"uuid":"3b1a8a90-ba31-4bda-9365-c08c77089681","data_type":"tracking:checkpoint"},{"description":"instructions","dropoutCode":0,"uuid":"3b1a8a90-ba31-4bda-9365-c08c77089681","data_type":"tracking:checkpoint"},{"description":"practice-1","dropoutCode":0,"uuid":"3b1a8a90-ba31-4bda-9365-c08c77089681","data_type":"tracking:checkpoint"},{"rt":2303,"responses":"{\"Q0\":\"I use this tool <strong>currently</strong>\"}","questions":"[null]","website":"{}","trial_type":"survey-multi-choice","trial_index":49,"time_elapsed":87872,"internal_node_id":"0.0-49.0","uuid":"3b1a8a90-ba31-4bda-9365-c08c77089681","data_type":"study:data"},{"description":"pre-trial break","dropoutCode":0,"uuid":"3b1a8a90-ba31-4bda-9365-c08c77089681","data_type":"tracking:checkpoint"},{"description":"trials-3-1","dropoutCode":0,"uuid":"3b1a8a90-ba31-4bda-9365-c08c77089681","data_type":"tracking:checkpoint"},{"rt":2530,"responses":"{\"Q0\":\"2\"}","scenario":"{}","tool":"\"adblocker\"","trial_type":"survey-likert","trial_index":54,"time_elapsed":94418,"internal_node_id":"0.0-54.0","uuid":"3b1a8a90-ba31-4bda-9365-c08c77089681","data_type":"study:data"},{"general-comments":"","technical":"no","technical-comments":"","cheating":"no","cheating-comments":"","uuid":"3b1a8a90-ba31-4bda-9365-c08c77089681","data_type":"study:comments"},{"riskFactor":5,"uuid":"3b1a8a90-ba31-4bda-9365-c08c77089681"},{"contentLanguage":"en","city":"not_fetched_or_initialized","country":"not_fetched_or_initialized","uuid":"73504470-64ce-40d9-bc49-877d0273cbf7","data_type":"litw:initialize"},{"description":"irb","dropoutCode":0,"uuid":"73504470-64ce-40d9-bc49-877d0273cbf7","data_type":"tracking:checkpoint"}]
