[{"description":"irb","dropoutCode":0,"uuid":"196debda-e8ed-433c-b998-aaf8337f1dfd","data_type":"tracking:checkpoint"},{"contentLanguage":"en","city":"not_fetched_or_initialized","country":"not_fetched_or_initialized","uuid":"196debda-e8ed-433c-b998-aaf8337f1dfd","data_type":"litw:initialize"},{"description":"demographics","dropoutCode":0,"uuid":"196debda-e8ed-433c-b998-aaf8337f1dfd","data_type":"tracking:checkpoint"},{"retake":"1","age":"21","country0":"United Kingdom","education":"college","dataprivacy":"Yes","why":"I am concerned about how my data is used","uuid":"196debda-e8ed-433c-b998-aaf8337f1dfd","data_type":"study:demographics"},{"description":"websiteUseSurvey","dropoutCode":0,"uuid":"196debda-e8ed-433c-b998-aaf8337f1dfd","data_type":"tracking:checkpoint"},{"dataType":"websiteUseSurvey","accuweather":"dontuse","allrecipes":"dontuse","amazon":"usedto","apple":"sometimes","bbc":"sometimes","dictionary":"dontuse","ebay":"dontuse","expedia":"dontuse","facebook":"often","gmail":"often","google":"often","google-maps":"often","instagram":"often","linkedin":"often","netflix":"often","nytimes":"sometimes","paypal":"often","reddit":"often","tripadvisor":"sometimes","twitter":"dontuse","whatsapp":"often","wikipedia":"often","youtube":"often","uuid":"196debda-e8ed-433c-b998-aaf8337f1dfd","data_type":"study:data"},{"description":"instructions","dropoutCode":0,"uuid":"196debda-e8ed-433c-b998-aaf8337f1dfd","data_type":"tracking:checkpoint"},{"description":"practice-1","dropoutCode":0,"uuid":"196debda-e8ed-433c-b998-aaf8337f1dfd","data_type":"tracking:checkpoint"},{"rt":2579,"responses":"{\"Q0\":\"0\"}","scenario":"\"scenario-example\"","tool":"{}","trial_type":"survey-likert","trial_index":3,"time_elapsed":50048,"internal_node_id":"0.0-3.0","uuid":"196debda-e8ed-433c-b998-aaf8337f1dfd","data_type":"study:data"},{"description":"pre-trial break","dropoutCode":0,"uuid":"196debda-e8ed-433c-b998-aaf8337f1dfd","data_type":"tracking:checkpoint"},{"description":"trials-1-1","dropoutCode":0,"uuid":"196debda-e8ed-433c-b998-aaf8337f1dfd","data_type":"tracking:checkpoint"},{"rt":9592,"responses":"{\"Q0\":\"3\"}","scenario":"\"tripadvisor-1\"","tool":"{}","trial_type":"survey-likert","trial_index":8,"time_elapsed":63176,"internal_node_id":"0.0-8.0","uuid":"196debda-e8ed-433c-b998-aaf8337f1dfd","data_type":"study:data"},{"description":"trials-1-2","dropoutCode":0,"uuid":"196debda-e8ed-433c-b998-aaf8337f1dfd","data_type":"tracking:checkpoint"},{"rt":4307,"responses":"{\"Q0\":\"3\"}","scenario":"\"twitter-1\"","tool":"{}","trial_type":"survey-likert","trial_index":11,"time_elapsed":68495,"internal_node_id":"0.0-11.0","uuid":"196debda-e8ed-433c-b998-aaf8337f1dfd","data_type":"study:data"},{"description":"trials-1-3","dropoutCode":0,"uuid":"196debda-e8ed-433c-b998-aaf8337f1dfd","data_type":"tracking:checkpoint"},{"rt":5564,"responses":"{\"Q0\":\"1\"}","scenario":"\"google-maps\"","tool":"{}","trial_type":"survey-likert","trial_index":14,"time_elapsed":75071,"internal_node_id":"0.0-14.0","uuid":"196debda-e8ed-433c-b998-aaf8337f1dfd","data_type":"study:data"},{"description":"trials-1-4","dropoutCode":0,"uuid":"196debda-e8ed-433c-b998-aaf8337f1dfd","data_type":"tracking:checkpoint"},{"rt":6726,"responses":"{\"Q0\":\"4\"}","scenario":"\"linkedin-1\"","tool":"{}","trial_type":"survey-likert","trial_index":17,"time_elapsed":82805,"internal_node_id":"0.0-17.0","uuid":"196debda-e8ed-433c-b998-aaf8337f1dfd","data_type":"study:data"},{"description":"trials-1-5","dropoutCode":0,"uuid":"196debda-e8ed-433c-b998-aaf8337f1dfd","data_type":"tracking:checkpoint"},{"rt":5725,"responses":"{\"Q0\":\"1\"}","scenario":"\"bbc-1\"","tool":"{}","trial_type":"survey-likert","trial_index":20,"time_elapsed":89542,"internal_node_id":"0.0-20.0","uuid":"196debda-e8ed-433c-b998-aaf8337f1dfd","data_type":"study:data"},{"description":"trials-1-6","dropoutCode":0,"uuid":"196debda-e8ed-433c-b998-aaf8337f1dfd","data_type":"tracking:checkpoint"},{"rt":4263,"responses":"{\"Q0\":\"4\"}","scenario":"\"instagram-1\"","tool":"{}","trial_type":"survey-likert","trial_index":23,"time_elapsed":94814,"internal_node_id":"0.0-23.0","uuid":"196debda-e8ed-433c-b998-aaf8337f1dfd","data_type":"study:data"},{"description":"trials-1-7","dropoutCode":0,"uuid":"196debda-e8ed-433c-b998-aaf8337f1dfd","data_type":"tracking:checkpoint"},{"rt":10518,"responses":"{\"Q0\":\"4\"}","scenario":"\"nytimes-1\"","tool":"{}","trial_type":"survey-likert","trial_index":26,"time_elapsed":106342,"internal_node_id":"0.0-26.0","uuid":"196debda-e8ed-433c-b998-aaf8337f1dfd","data_type":"study:data"},{"description":"trials-1-8","dropoutCode":0,"uuid":"196debda-e8ed-433c-b998-aaf8337f1dfd","data_type":"tracking:checkpoint"},{"rt":4479,"responses":"{\"Q0\":\"4\"}","scenario":"\"ebay-1\"","tool":"{}","trial_type":"survey-likert","trial_index":29,"time_elapsed":111831,"internal_node_id":"0.0-29.0","uuid":"196debda-e8ed-433c-b998-aaf8337f1dfd","data_type":"study:data"},{"description":"trials-1-9","dropoutCode":0,"uuid":"196debda-e8ed-433c-b998-aaf8337f1dfd","data_type":"tracking:checkpoint"},{"rt":7389,"responses":"{\"Q0\":\"1\"}","scenario":"\"amazon-1\"","tool":"{}","trial_type":"survey-likert","trial_index":32,"time_elapsed":120230,"internal_node_id":"0.0-32.0","uuid":"196debda-e8ed-433c-b998-aaf8337f1dfd","data_type":"study:data"},{"description":"trials-1-10","dropoutCode":0,"uuid":"196debda-e8ed-433c-b998-aaf8337f1dfd","data_type":"tracking:checkpoint"},{"rt":5349,"responses":"{\"Q0\":\"3\"}","scenario":"\"dictionary-2\"","tool":"{}","trial_type":"survey-likert","trial_index":35,"time_elapsed":126591,"internal_node_id":"0.0-35.0","uuid":"196debda-e8ed-433c-b998-aaf8337f1dfd","data_type":"study:data"},{"description":"mid-trial break","dropoutCode":0,"uuid":"196debda-e8ed-433c-b998-aaf8337f1dfd","data_type":"tracking:checkpoint"},{"description":"instructions","dropoutCode":0,"uuid":"196debda-e8ed-433c-b998-aaf8337f1dfd","data_type":"tracking:checkpoint"},{"description":"practice-1","dropoutCode":0,"uuid":"196debda-e8ed-433c-b998-aaf8337f1dfd","data_type":"tracking:checkpoint"},{"rt":1948,"responses":"{\"Q0\":\"Yes\"}","questions":"[\"Would mind if this website knew your bank account number?\"]","website":"\"twitter\"","tool":"{}","trial_type":"survey-multi-choice","trial_index":41,"time_elapsed":135645,"internal_node_id":"0.0-41.0","uuid":"196debda-e8ed-433c-b998-aaf8337f1dfd","data_type":"study:data"},{"description":"pre-trial break","dropoutCode":0,"uuid":"196debda-e8ed-433c-b998-aaf8337f1dfd","data_type":"tracking:checkpoint"},{"description":"trials-2-1","dropoutCode":0,"uuid":"196debda-e8ed-433c-b998-aaf8337f1dfd","data_type":"tracking:checkpoint"},{"description":"trials-2-2","dropoutCode":0,"uuid":"196debda-e8ed-433c-b998-aaf8337f1dfd","data_type":"tracking:checkpoint"},{"rt":5341,"responses":"{\"Q0\":\"Yes\",\"Q1\":\"Yes\",\"Q2\":\"Yes\"}","questions":"[\"fullname\",\"bank\",\"bankaccount\"]","website":"\"wikipedia\"","tool":"{}","trial_type":"survey-multi-choice","trial_index":46,"time_elapsed":144613,"internal_node_id":"0.0-46.0","uuid":"196debda-e8ed-433c-b998-aaf8337f1dfd","data_type":"study:data"},{"rt":7863,"responses":"{\"Q0\":\"Yes\",\"Q1\":\"Maybe\",\"Q2\":\"Yes\"}","questions":"[\"dietary\",\"device\",\"products\"]","website":"\"linkedin\"","tool":"{}","trial_type":"survey-multi-choice","trial_index":49,"time_elapsed":153492,"internal_node_id":"0.0-49.0","uuid":"196debda-e8ed-433c-b998-aaf8337f1dfd","data_type":"study:data"},{"description":"trials-2-3","dropoutCode":0,"uuid":"196debda-e8ed-433c-b998-aaf8337f1dfd","data_type":"tracking:checkpoint"},{"rt":7584,"responses":"{\"Q0\":\"Yes\",\"Q1\":\"Yes\",\"Q2\":\"Yes\"}","questions":"[\"Would you mind if this website knew if you were politcally left or right leaning?\",\"disability\",\"sexuality\"]","website":"\"youtube\"","tool":"{}","trial_type":"survey-multi-choice","trial_index":52,"time_elapsed":162095,"internal_node_id":"0.0-52.0","uuid":"196debda-e8ed-433c-b998-aaf8337f1dfd","data_type":"study:data"},{"description":"trials-2-4","dropoutCode":0,"uuid":"196debda-e8ed-433c-b998-aaf8337f1dfd","data_type":"tracking:checkpoint"},{"rt":9732,"responses":"{\"Q0\":\"No\",\"Q1\":\"Yes\",\"Q2\":\"Yes\"}","questions":"[\"face\",\"deviceID\",\"messages\"]","website":"\"reddit\"","tool":"{}","trial_type":"survey-multi-choice","trial_index":55,"time_elapsed":172845,"internal_node_id":"0.0-55.0","uuid":"196debda-e8ed-433c-b998-aaf8337f1dfd","data_type":"study:data"},{"description":"trials-2-5","dropoutCode":0,"uuid":"196debda-e8ed-433c-b998-aaf8337f1dfd","data_type":"tracking:checkpoint"},{"rt":8377,"responses":"{\"Q0\":\"Yes\",\"Q1\":\"Yes\",\"Q2\":\"Maybe\"}","questions":"[\"vote\",\"religion\",\"emails\"]","website":"\"gmail\"","tool":"{}","trial_type":"survey-multi-choice","trial_index":58,"time_elapsed":182235,"internal_node_id":"0.0-58.0","uuid":"196debda-e8ed-433c-b998-aaf8337f1dfd","data_type":"study:data"},{"description":"mid-trial break","dropoutCode":0,"uuid":"196debda-e8ed-433c-b998-aaf8337f1dfd","data_type":"tracking:checkpoint"},{"description":"instructions","dropoutCode":0,"uuid":"196debda-e8ed-433c-b998-aaf8337f1dfd","data_type":"tracking:checkpoint"},{"description":"practice-1","dropoutCode":0,"uuid":"196debda-e8ed-433c-b998-aaf8337f1dfd","data_type":"tracking:checkpoint"},{"rt":1444,"responses":"{\"Q0\":\"I use this tool <strong>currently</strong>\"}","questions":"[\"Have you used this tool?\"]","website":"{}","tool":"\"browser\"","trial_type":"survey-multi-choice","trial_index":64,"time_elapsed":190654,"internal_node_id":"0.0-64.0","uuid":"196debda-e8ed-433c-b998-aaf8337f1dfd","data_type":"study:data"},{"description":"pre-trial break","dropoutCode":0,"uuid":"196debda-e8ed-433c-b998-aaf8337f1dfd","data_type":"tracking:checkpoint"},{"description":"trials-3-1","dropoutCode":0,"uuid":"196debda-e8ed-433c-b998-aaf8337f1dfd","data_type":"tracking:checkpoint"},{"rt":2602,"responses":"{\"Q0\":\"I use this tool <strong>currently</strong>\"}","questions":"[\"Have you used this tool?\"]","website":"{}","tool":"\"encrypted-messaging\"","trial_type":"survey-multi-choice","trial_index":69,"time_elapsed":196829,"internal_node_id":"0.0-69.0","uuid":"196debda-e8ed-433c-b998-aaf8337f1dfd","data_type":"study:data"},{"description":"trials-3-2","dropoutCode":0,"uuid":"196debda-e8ed-433c-b998-aaf8337f1dfd","data_type":"tracking:checkpoint"},{"rt":5084,"responses":"{\"Q0\":\"I don't use this tool currently but <strong>I would be</strong> willing to use it\"}","questions":"[\"Have you used this tool?\"]","website":"{}","tool":"\"anonymous-browser\"","trial_type":"survey-multi-choice","trial_index":72,"time_elapsed":202924,"internal_node_id":"0.0-72.0","uuid":"196debda-e8ed-433c-b998-aaf8337f1dfd","data_type":"study:data"},{"description":"trials-3-3","dropoutCode":0,"uuid":"196debda-e8ed-433c-b998-aaf8337f1dfd","data_type":"tracking:checkpoint"},{"rt":2132,"responses":"{\"Q0\":\"I use this tool <strong>currently</strong>\"}","questions":"[\"Have you used this tool?\"]","website":"{}","tool":"\"adblocker\"","trial_type":"survey-multi-choice","trial_index":75,"time_elapsed":206067,"internal_node_id":"0.0-75.0","uuid":"196debda-e8ed-433c-b998-aaf8337f1dfd","data_type":"study:data"},{"description":"trials-3-4","dropoutCode":0,"uuid":"196debda-e8ed-433c-b998-aaf8337f1dfd","data_type":"tracking:checkpoint"},{"rt":1852,"responses":"{\"Q0\":\"I use this tool <strong>currently</strong>\"}","questions":"[\"Have you used this tool?\"]","website":"{}","tool":"\"anti-virus\"","trial_type":"survey-multi-choice","trial_index":78,"time_elapsed":208934,"internal_node_id":"0.0-78.0","uuid":"196debda-e8ed-433c-b998-aaf8337f1dfd","data_type":"study:data"},{"description":"trials-3-5","dropoutCode":0,"uuid":"196debda-e8ed-433c-b998-aaf8337f1dfd","data_type":"tracking:checkpoint"},{"rt":1776,"responses":"{\"Q0\":\"I use this tool <strong>currently</strong>\"}","questions":"[\"Have you used this tool?\"]","website":"{}","tool":"\"third-party\"","trial_type":"survey-multi-choice","trial_index":81,"time_elapsed":211722,"internal_node_id":"0.0-81.0","uuid":"196debda-e8ed-433c-b998-aaf8337f1dfd","data_type":"study:data"},{"description":"trials-3-6","dropoutCode":0,"uuid":"196debda-e8ed-433c-b998-aaf8337f1dfd","data_type":"tracking:checkpoint"},{"rt":4343,"responses":"{\"Q0\":\"I don't use this tool currently but <strong>I would be</strong> willing to use it\"}","questions":"[\"Have you used this tool?\"]","website":"{}","tool":"\"private-email\"","trial_type":"survey-multi-choice","trial_index":84,"time_elapsed":217075,"internal_node_id":"0.0-84.0","uuid":"196debda-e8ed-433c-b998-aaf8337f1dfd","data_type":"study:data"},{"description":"trials-3-7","dropoutCode":0,"uuid":"196debda-e8ed-433c-b998-aaf8337f1dfd","data_type":"tracking:checkpoint"},{"rt":1790,"responses":"{\"Q0\":\"I use this tool <strong>currently</strong>\"}","questions":"[\"Have you used this tool?\"]","website":"{}","tool":"\"password-manager\"","trial_type":"survey-multi-choice","trial_index":87,"time_elapsed":219875,"internal_node_id":"0.0-87.0","uuid":"196debda-e8ed-433c-b998-aaf8337f1dfd","data_type":"study:data"},{"description":"trials-3-8","dropoutCode":0,"uuid":"196debda-e8ed-433c-b998-aaf8337f1dfd","data_type":"tracking:checkpoint"},{"rt":3583,"responses":"{\"Q0\":\"I have used this tool in the past and <strong>would</strong> be willing to use it again\"}","questions":"[\"Have you used this tool?\"]","website":"{}","tool":"\"vpn\"","trial_type":"survey-multi-choice","trial_index":90,"time_elapsed":224467,"internal_node_id":"0.0-90.0","uuid":"196debda-e8ed-433c-b998-aaf8337f1dfd","data_type":"study:data"},{"general-comments":"","technical":"no","technical-comments":"","cheating":"no","cheating-comments":"","uuid":"196debda-e8ed-433c-b998-aaf8337f1dfd","data_type":"study:comments"},{"riskFactor":2,"uuid":"196debda-e8ed-433c-b998-aaf8337f1dfd"},{"contentLanguage":"en","city":"not_fetched_or_initialized","country":"not_fetched_or_initialized","uuid":"c742eaba-75b4-48f0-bf1c-d2176923625e","data_type":"litw:initialize"},{"description":"irb","dropoutCode":0,"uuid":"c742eaba-75b4-48f0-bf1c-d2176923625e","data_type":"tracking:checkpoint"},{"description":"irb","dropoutCode":0,"uuid":"f278de92-8f87-4ad7-a8ca-d71517b066b8","data_type":"tracking:checkpoint"},{"contentLanguage":"en","city":"not_fetched_or_initialized","country":"not_fetched_or_initialized","uuid":"f278de92-8f87-4ad7-a8ca-d71517b066b8","data_type":"litw:initialize"},{"contentLanguage":"en","city":"not_fetched_or_initialized","country":"not_fetched_or_initialized","uuid":"449d8ec2-9606-4c64-8bf2-e96531c70151","data_type":"litw:initialize"},{"description":"irb","dropoutCode":0,"uuid":"449d8ec2-9606-4c64-8bf2-e96531c70151","data_type":"tracking:checkpoint"},{"description":"demographics","dropoutCode":0,"uuid":"449d8ec2-9606-4c64-8bf2-e96531c70151","data_type":"tracking:checkpoint"},{"retake":"0","age":"56","country0":"United Kingdom","education":"college","dataprivacy":"Yes","why":"I don","uuid":"449d8ec2-9606-4c64-8bf2-e96531c70151","data_type":"study:demographics"},{"description":"websiteUseSurvey","dropoutCode":0,"uuid":"449d8ec2-9606-4c64-8bf2-e96531c70151","data_type":"tracking:checkpoint"},{"dataType":"websiteUseSurvey","accuweather":"dontuse","allrecipes":"dontuse","amazon":"often","apple":"dontuse","bbc":"sometimes","dictionary":"dontuse","ebay":"often","expedia":"sometimes","facebook":"sometimes","gmail":"dontuse","google":"often","google-maps":"sometimes","instagram":"dontuse","linkedin":"sometimes","netflix":"often","nytimes":"dontuse","paypal":"sometimes","reddit":"never","tripadvisor":"often","twitter":"sometimes","whatsapp":"often","wikipedia":"usedto","youtube":"sometimes","uuid":"449d8ec2-9606-4c64-8bf2-e96531c70151","data_type":"study:data"},{"description":"instructions","dropoutCode":0,"uuid":"449d8ec2-9606-4c64-8bf2-e96531c70151","data_type":"tracking:checkpoint"},{"description":"practice-1","dropoutCode":0,"uuid":"449d8ec2-9606-4c64-8bf2-e96531c70151","data_type":"tracking:checkpoint"},{"description":"pre-trial break","dropoutCode":0,"uuid":"449d8ec2-9606-4c64-8bf2-e96531c70151","data_type":"tracking:checkpoint"},{"rt":71704,"responses":"{\"Q0\":\"0\"}","scenario":"\"scenario-example\"","tool":"{}","trial_type":"survey-likert","trial_index":3,"time_elapsed":433618,"internal_node_id":"0.0-3.0","uuid":"449d8ec2-9606-4c64-8bf2-e96531c70151","data_type":"study:data"},{"description":"trials-1-1","dropoutCode":0,"uuid":"449d8ec2-9606-4c64-8bf2-e96531c70151","data_type":"tracking:checkpoint"},{"rt":56891,"responses":"{\"Q0\":\"3\"}","scenario":"\"facebook-3\"","tool":"{}","trial_type":"survey-likert","trial_index":8,"time_elapsed":498161,"internal_node_id":"0.0-8.0","uuid":"449d8ec2-9606-4c64-8bf2-e96531c70151","data_type":"study:data"},{"description":"trials-1-2","dropoutCode":0,"uuid":"449d8ec2-9606-4c64-8bf2-e96531c70151","data_type":"tracking:checkpoint"},{"description":"trials-1-3","dropoutCode":0,"uuid":"449d8ec2-9606-4c64-8bf2-e96531c70151","data_type":"tracking:checkpoint"},{"rt":24102,"responses":"{\"Q0\":\"3\"}","scenario":"\"allrecipes\"","tool":"{}","trial_type":"survey-likert","trial_index":11,"time_elapsed":523274,"internal_node_id":"0.0-11.0","uuid":"449d8ec2-9606-4c64-8bf2-e96531c70151","data_type":"study:data"},{"rt":66139,"responses":"{\"Q0\":\"3\"}","scenario":"\"facebook-1-2\"","tool":"{}","trial_type":"survey-likert","trial_index":14,"time_elapsed":590425,"internal_node_id":"0.0-14.0","uuid":"449d8ec2-9606-4c64-8bf2-e96531c70151","data_type":"study:data"},{"description":"trials-1-4","dropoutCode":0,"uuid":"449d8ec2-9606-4c64-8bf2-e96531c70151","data_type":"tracking:checkpoint"},{"rt":15051,"responses":"{\"Q0\":\"2\"}","scenario":"\"dictionary-2\"","tool":"{}","trial_type":"survey-likert","trial_index":17,"time_elapsed":606488,"internal_node_id":"0.0-17.0","uuid":"449d8ec2-9606-4c64-8bf2-e96531c70151","data_type":"study:data"},{"description":"trials-1-5","dropoutCode":0,"uuid":"449d8ec2-9606-4c64-8bf2-e96531c70151","data_type":"tracking:checkpoint"},{"rt":11501,"responses":"{\"Q0\":\"2\"}","scenario":"\"nytimes-2\"","tool":"{}","trial_type":"survey-likert","trial_index":20,"time_elapsed":619000,"internal_node_id":"0.0-20.0","uuid":"449d8ec2-9606-4c64-8bf2-e96531c70151","data_type":"study:data"},{"description":"trials-1-6","dropoutCode":0,"uuid":"449d8ec2-9606-4c64-8bf2-e96531c70151","data_type":"tracking:checkpoint"},{"description":"trials-1-7","dropoutCode":0,"uuid":"449d8ec2-9606-4c64-8bf2-e96531c70151","data_type":"tracking:checkpoint"},{"rt":15397,"responses":"{\"Q0\":\"4\"}","scenario":"\"accuweather-facebook-2\"","tool":"{}","trial_type":"survey-likert","trial_index":23,"time_elapsed":635408,"internal_node_id":"0.0-23.0","uuid":"449d8ec2-9606-4c64-8bf2-e96531c70151","data_type":"study:data"},{"description":"trials-1-8","dropoutCode":0,"uuid":"449d8ec2-9606-4c64-8bf2-e96531c70151","data_type":"tracking:checkpoint"},{"rt":21237,"responses":"{\"Q0\":\"2\"}","scenario":"\"reddit-1\"","tool":"{}","trial_type":"survey-likert","trial_index":26,"time_elapsed":657655,"internal_node_id":"0.0-26.0","uuid":"449d8ec2-9606-4c64-8bf2-e96531c70151","data_type":"study:data"},{"rt":64492,"responses":"{\"Q0\":\"3\"}","scenario":"\"facebook-1\"","tool":"{}","trial_type":"survey-likert","trial_index":29,"time_elapsed":723160,"internal_node_id":"0.0-29.0","uuid":"449d8ec2-9606-4c64-8bf2-e96531c70151","data_type":"study:data"},{"description":"trials-1-9","dropoutCode":0,"uuid":"449d8ec2-9606-4c64-8bf2-e96531c70151","data_type":"tracking:checkpoint"},{"rt":20131,"responses":"{\"Q0\":\"3\"}","scenario":"\"google-1\"","tool":"{}","trial_type":"survey-likert","trial_index":32,"time_elapsed":744304,"internal_node_id":"0.0-32.0","uuid":"449d8ec2-9606-4c64-8bf2-e96531c70151","data_type":"study:data"},{"description":"trials-1-10","dropoutCode":0,"uuid":"449d8ec2-9606-4c64-8bf2-e96531c70151","data_type":"tracking:checkpoint"},{"rt":289962,"responses":"{\"Q0\":\"3\"}","scenario":"\"nytimes-1\"","tool":"{}","trial_type":"survey-likert","trial_index":35,"time_elapsed":1035275,"internal_node_id":"0.0-35.0","uuid":"449d8ec2-9606-4c64-8bf2-e96531c70151","data_type":"study:data"},{"description":"mid-trial break","dropoutCode":0,"uuid":"449d8ec2-9606-4c64-8bf2-e96531c70151","data_type":"tracking:checkpoint"},{"description":"instructions","dropoutCode":0,"uuid":"449d8ec2-9606-4c64-8bf2-e96531c70151","data_type":"tracking:checkpoint"},{"description":"practice-1","dropoutCode":0,"uuid":"449d8ec2-9606-4c64-8bf2-e96531c70151","data_type":"tracking:checkpoint"},{"rt":349012,"responses":"{\"Q0\":\"Yes\"}","questions":"[\"Would mind if this website knew your bank account number?\"]","website":"\"twitter\"","tool":"{}","trial_type":"survey-multi-choice","trial_index":41,"time_elapsed":1400641,"internal_node_id":"0.0-41.0","uuid":"449d8ec2-9606-4c64-8bf2-e96531c70151","data_type":"study:data"},{"description":"pre-trial break","dropoutCode":0,"uuid":"449d8ec2-9606-4c64-8bf2-e96531c70151","data_type":"tracking:checkpoint"},{"description":"trials-2-1","dropoutCode":0,"uuid":"449d8ec2-9606-4c64-8bf2-e96531c70151","data_type":"tracking:checkpoint"},{"rt":40156,"responses":"{\"Q0\":\"Maybe\",\"Q1\":\"No\",\"Q2\":\"Yes\"}","questions":"[\"products\",\"sexuality\",\"passport\"]","website":"\"reddit\"","tool":"{}","trial_type":"survey-multi-choice","trial_index":46,"time_elapsed":1446200,"internal_node_id":"0.0-46.0","uuid":"449d8ec2-9606-4c64-8bf2-e96531c70151","data_type":"study:data"},{"description":"trials-2-2","dropoutCode":0,"uuid":"449d8ec2-9606-4c64-8bf2-e96531c70151","data_type":"tracking:checkpoint"},{"rt":63707,"responses":"{\"Q0\":\"No\",\"Q1\":\"No\",\"Q2\":\"No\"}","questions":"[\"employment\",\"religion\",\"face\"]","website":"\"apple\"","tool":"{}","trial_type":"survey-multi-choice","trial_index":49,"time_elapsed":1510926,"internal_node_id":"0.0-49.0","uuid":"449d8ec2-9606-4c64-8bf2-e96531c70151","data_type":"study:data"},{"description":"trials-2-3","dropoutCode":0,"uuid":"449d8ec2-9606-4c64-8bf2-e96531c70151","data_type":"tracking:checkpoint"},{"rt":11804,"responses":"{\"Q0\":\"No\",\"Q1\":\"Maybe\",\"Q2\":\"Yes\"}","questions":"[\"fullname\",\"Would you mind if this website knew if you were politcally left or right leaning?\",\"contacts\"]","website":"\"gmail\"","tool":"{}","trial_type":"survey-multi-choice","trial_index":52,"time_elapsed":1523751,"internal_node_id":"0.0-52.0","uuid":"449d8ec2-9606-4c64-8bf2-e96531c70151","data_type":"study:data"},{"description":"trials-2-4","dropoutCode":0,"uuid":"449d8ec2-9606-4c64-8bf2-e96531c70151","data_type":"tracking:checkpoint"},{"description":"trials-2-5","dropoutCode":0,"uuid":"449d8ec2-9606-4c64-8bf2-e96531c70151","data_type":"tracking:checkpoint"},{"rt":13003,"responses":"{\"Q0\":\"No\",\"Q1\":\"Maybe\",\"Q2\":\"Yes\"}","questions":"[\"hobbies\",\"history\",\"bankaccount\"]","website":"\"facebook\"","tool":"{}","trial_type":"survey-multi-choice","trial_index":55,"time_elapsed":1537775,"internal_node_id":"0.0-55.0","uuid":"449d8ec2-9606-4c64-8bf2-e96531c70151","data_type":"study:data"},{"rt":28708,"responses":"{\"Q0\":\"No\",\"Q1\":\"Maybe\",\"Q2\":\"No\"}","questions":"[\"race\",\"address\",\"fingerprint\"]","website":"\"bbc\"","tool":"{}","trial_type":"survey-multi-choice","trial_index":58,"time_elapsed":1567502,"internal_node_id":"0.0-58.0","uuid":"449d8ec2-9606-4c64-8bf2-e96531c70151","data_type":"study:data"},{"description":"mid-trial break","dropoutCode":0,"uuid":"449d8ec2-9606-4c64-8bf2-e96531c70151","data_type":"tracking:checkpoint"},{"description":"instructions","dropoutCode":0,"uuid":"449d8ec2-9606-4c64-8bf2-e96531c70151","data_type":"tracking:checkpoint"},{"description":"practice-1","dropoutCode":0,"uuid":"449d8ec2-9606-4c64-8bf2-e96531c70151","data_type":"tracking:checkpoint"},{"rt":19039,"responses":"{\"Q0\":\"I use this tool <strong>currently</strong>\"}","questions":"[\"Have you used this tool?\"]","website":"{}","tool":"\"browser\"","trial_type":"survey-multi-choice","trial_index":64,"time_elapsed":1599021,"internal_node_id":"0.0-64.0","uuid":"449d8ec2-9606-4c64-8bf2-e96531c70151","data_type":"study:data"},{"description":"pre-trial break","dropoutCode":0,"uuid":"449d8ec2-9606-4c64-8bf2-e96531c70151","data_type":"tracking:checkpoint"},{"description":"trials-3-1","dropoutCode":0,"uuid":"449d8ec2-9606-4c64-8bf2-e96531c70151","data_type":"tracking:checkpoint"},{"description":"trials-3-2","dropoutCode":0,"uuid":"449d8ec2-9606-4c64-8bf2-e96531c70151","data_type":"tracking:checkpoint"},{"rt":13266,"responses":"{\"Q0\":\"I don't use this tool currently but <strong>I would be</strong> willing to use it\"}","questions":"[\"Have you used this tool?\"]","website":"{}","tool":"\"encrypted-messaging\"","trial_type":"survey-multi-choice","trial_index":69,"time_elapsed":1617181,"internal_node_id":"0.0-69.0","uuid":"449d8ec2-9606-4c64-8bf2-e96531c70151","data_type":"study:data"},{"description":"trials-3-3","dropoutCode":0,"uuid":"449d8ec2-9606-4c64-8bf2-e96531c70151","data_type":"tracking:checkpoint"},{"rt":8624,"responses":"{\"Q0\":\"I have used this tool in the past and <strong>would</strong> be willing to use it again\"}","questions":"[\"Have you used this tool?\"]","website":"{}","tool":"\"anti-virus\"","trial_type":"survey-multi-choice","trial_index":72,"time_elapsed":1626820,"internal_node_id":"0.0-72.0","uuid":"449d8ec2-9606-4c64-8bf2-e96531c70151","data_type":"study:data"},{"description":"trials-3-4","dropoutCode":0,"uuid":"449d8ec2-9606-4c64-8bf2-e96531c70151","data_type":"tracking:checkpoint"},{"rt":16126,"responses":"{\"Q0\":\"I use this tool <strong>currently</strong>\"}","questions":"[\"Have you used this tool?\"]","website":"{}","tool":"\"password-manager\"","trial_type":"survey-multi-choice","trial_index":75,"time_elapsed":1643956,"internal_node_id":"0.0-75.0","uuid":"449d8ec2-9606-4c64-8bf2-e96531c70151","data_type":"study:data"},{"description":"trials-3-5","dropoutCode":0,"uuid":"449d8ec2-9606-4c64-8bf2-e96531c70151","data_type":"tracking:checkpoint"},{"rt":18763,"responses":"{\"Q0\":\"I don't use this tool currently and <strong>I would not</strong> be willing to use it\"}","questions":"[\"Have you used this tool?\"]","website":"{}","tool":"\"vpn\"","trial_type":"survey-multi-choice","trial_index":78,"time_elapsed":1663732,"internal_node_id":"0.0-78.0","uuid":"449d8ec2-9606-4c64-8bf2-e96531c70151","data_type":"study:data"},{"rt":12769,"responses":"{\"Q0\":\"I don't use this tool currently but <strong>I would be</strong> willing to use it\"}","questions":"[\"Have you used this tool?\"]","website":"{}","tool":"\"adblocker\"","trial_type":"survey-multi-choice","trial_index":81,"time_elapsed":1677516,"internal_node_id":"0.0-81.0","uuid":"449d8ec2-9606-4c64-8bf2-e96531c70151","data_type":"study:data"},{"description":"trials-3-6","dropoutCode":0,"uuid":"449d8ec2-9606-4c64-8bf2-e96531c70151","data_type":"tracking:checkpoint"},{"rt":30600,"responses":"{\"Q0\":\"I don't use this tool currently but <strong>I would be</strong> willing to use it\"}","questions":"[\"Have you used this tool?\"]","website":"{}","tool":"\"private-email\"","trial_type":"survey-multi-choice","trial_index":84,"time_elapsed":1709131,"internal_node_id":"0.0-84.0","uuid":"449d8ec2-9606-4c64-8bf2-e96531c70151","data_type":"study:data"},{"description":"trials-3-7","dropoutCode":0,"uuid":"449d8ec2-9606-4c64-8bf2-e96531c70151","data_type":"tracking:checkpoint"},{"rt":6336,"responses":"{\"Q0\":\"I don't use this tool currently but <strong>I would be</strong> willing to use it\"}","questions":"[\"Have you used this tool?\"]","website":"{}","tool":"\"anonymous-browser\"","trial_type":"survey-multi-choice","trial_index":87,"time_elapsed":1716483,"internal_node_id":"0.0-87.0","uuid":"449d8ec2-9606-4c64-8bf2-e96531c70151","data_type":"study:data"},{"description":"trials-3-8","dropoutCode":0,"uuid":"449d8ec2-9606-4c64-8bf2-e96531c70151","data_type":"tracking:checkpoint"},{"rt":9506,"responses":"{\"Q0\":\"I don't use this tool currently but <strong>I would be</strong> willing to use it\"}","questions":"[\"Have you used this tool?\"]","website":"{}","tool":"\"third-party\"","trial_type":"survey-multi-choice","trial_index":90,"time_elapsed":1727003,"internal_node_id":"0.0-90.0","uuid":"449d8ec2-9606-4c64-8bf2-e96531c70151","data_type":"study:data"},{"general-comments":"Fab, really easy to use","technical":"no","technical-comments":"","cheating":"no","cheating-comments":"","uuid":"449d8ec2-9606-4c64-8bf2-e96531c70151","data_type":"study:comments"},{"riskFactor":6,"uuid":"449d8ec2-9606-4c64-8bf2-e96531c70151"},{"description":"irb","dropoutCode":0,"uuid":"9f845ae9-9168-49ea-ab90-c2cbcc822b64","data_type":"tracking:checkpoint"},{"contentLanguage":"en","city":"not_fetched_or_initialized","country":"not_fetched_or_initialized","uuid":"9f845ae9-9168-49ea-ab90-c2cbcc822b64","data_type":"litw:initialize"},{"description":"demographics","dropoutCode":0,"uuid":"9f845ae9-9168-49ea-ab90-c2cbcc822b64","data_type":"tracking:checkpoint"},{"retake":"1","age":"21","country0":"United Kingdom","education":"college","dataprivacy":"Yes","why":"I am concerned about how my data is used","uuid":"9f845ae9-9168-49ea-ab90-c2cbcc822b64","data_type":"study:demographics"},{"description":"websiteUseSurvey","dropoutCode":0,"uuid":"9f845ae9-9168-49ea-ab90-c2cbcc822b64","data_type":"tracking:checkpoint"},{"description":"irb","dropoutCode":0,"uuid":"4fb943b5-7d86-4dcf-bdd3-613aaeed79af","data_type":"tracking:checkpoint"},{"contentLanguage":"en","city":"not_fetched_or_initialized","country":"not_fetched_or_initialized","uuid":"4fb943b5-7d86-4dcf-bdd3-613aaeed79af","data_type":"litw:initialize"},{"description":"irb","dropoutCode":0,"uuid":"99e0eb14-f5b9-48d0-9c78-23fe54e7d036","data_type":"tracking:checkpoint"},{"contentLanguage":"en","city":"not_fetched_or_initialized","country":"not_fetched_or_initialized","uuid":"99e0eb14-f5b9-48d0-9c78-23fe54e7d036","data_type":"litw:initialize"},{"description":"demographics","dropoutCode":0,"uuid":"99e0eb14-f5b9-48d0-9c78-23fe54e7d036","data_type":"tracking:checkpoint"},{"retake":"0","age":"25","country0":"United Kingdom","education":"college","dataprivacy":"Yes","why":"I don","uuid":"99e0eb14-f5b9-48d0-9c78-23fe54e7d036","data_type":"study:demographics"},{"description":"websiteUseSurvey","dropoutCode":0,"uuid":"99e0eb14-f5b9-48d0-9c78-23fe54e7d036","data_type":"tracking:checkpoint"},{"dataType":"websiteUseSurvey","accuweather":"never","allrecipes":"never","amazon":"often","apple":"dontuse","bbc":"sometimes","dictionary":"dontuse","ebay":"sometimes","expedia":"sometimes","facebook":"often","gmail":"often","google":"often","google-maps":"often","instagram":"often","linkedin":"often","netflix":"often","nytimes":"dontuse","paypal":"sometimes","reddit":"usedto","tripadvisor":"usedto","twitter":"often","whatsapp":"often","wikipedia":"usedto","youtube":"often","uuid":"99e0eb14-f5b9-48d0-9c78-23fe54e7d036","data_type":"study:data"},{"description":"instructions","dropoutCode":0,"uuid":"99e0eb14-f5b9-48d0-9c78-23fe54e7d036","data_type":"tracking:checkpoint"},{"description":"practice-1","dropoutCode":0,"uuid":"99e0eb14-f5b9-48d0-9c78-23fe54e7d036","data_type":"tracking:checkpoint"},{"rt":10249,"responses":"{\"Q0\":\"0\"}","scenario":"\"scenario-example\"","tool":"{}","trial_type":"survey-likert","trial_index":3,"time_elapsed":80045,"internal_node_id":"0.0-3.0","uuid":"99e0eb14-f5b9-48d0-9c78-23fe54e7d036","data_type":"study:data"},{"description":"pre-trial break","dropoutCode":0,"uuid":"99e0eb14-f5b9-48d0-9c78-23fe54e7d036","data_type":"tracking:checkpoint"},{"description":"trials-1-1","dropoutCode":0,"uuid":"99e0eb14-f5b9-48d0-9c78-23fe54e7d036","data_type":"tracking:checkpoint"},{"rt":12177,"responses":"{\"Q0\":\"1\"}","scenario":"\"facebook-1\"","tool":"{}","trial_type":"survey-likert","trial_index":8,"time_elapsed":97186,"internal_node_id":"0.0-8.0","uuid":"99e0eb14-f5b9-48d0-9c78-23fe54e7d036","data_type":"study:data"},{"description":"trials-1-2","dropoutCode":0,"uuid":"99e0eb14-f5b9-48d0-9c78-23fe54e7d036","data_type":"tracking:checkpoint"},{"rt":11755,"responses":"{\"Q0\":\"0\"}","scenario":"\"nytimes-2\"","tool":"{}","trial_type":"survey-likert","trial_index":11,"time_elapsed":109948,"internal_node_id":"0.0-11.0","uuid":"99e0eb14-f5b9-48d0-9c78-23fe54e7d036","data_type":"study:data"},{"description":"trials-1-3","dropoutCode":0,"uuid":"99e0eb14-f5b9-48d0-9c78-23fe54e7d036","data_type":"tracking:checkpoint"},{"rt":12698,"responses":"{\"Q0\":\"0\"}","scenario":"\"bbc-1\"","tool":"{}","trial_type":"survey-likert","trial_index":14,"time_elapsed":123651,"internal_node_id":"0.0-14.0","uuid":"99e0eb14-f5b9-48d0-9c78-23fe54e7d036","data_type":"study:data"},{"description":"trials-1-4","dropoutCode":0,"uuid":"99e0eb14-f5b9-48d0-9c78-23fe54e7d036","data_type":"tracking:checkpoint"},{"description":"trials-1-5","dropoutCode":0,"uuid":"99e0eb14-f5b9-48d0-9c78-23fe54e7d036","data_type":"tracking:checkpoint"},{"rt":10465,"responses":"{\"Q0\":\"1\"}","scenario":"\"amazon-1\"","tool":"{}","trial_type":"survey-likert","trial_index":17,"time_elapsed":135122,"internal_node_id":"0.0-17.0","uuid":"99e0eb14-f5b9-48d0-9c78-23fe54e7d036","data_type":"study:data"},{"rt":11363,"responses":"{\"Q0\":\"1\"}","scenario":"\"wikipedia-1\"","tool":"{}","trial_type":"survey-likert","trial_index":20,"time_elapsed":147492,"internal_node_id":"0.0-20.0","uuid":"99e0eb14-f5b9-48d0-9c78-23fe54e7d036","data_type":"study:data"},{"description":"trials-1-6","dropoutCode":0,"uuid":"99e0eb14-f5b9-48d0-9c78-23fe54e7d036","data_type":"tracking:checkpoint"},{"rt":10608,"responses":"{\"Q0\":\"2\"}","scenario":"\"expedia-facebook-2\"","tool":"{}","trial_type":"survey-likert","trial_index":23,"time_elapsed":159107,"internal_node_id":"0.0-23.0","uuid":"99e0eb14-f5b9-48d0-9c78-23fe54e7d036","data_type":"study:data"},{"description":"trials-1-7","dropoutCode":0,"uuid":"99e0eb14-f5b9-48d0-9c78-23fe54e7d036","data_type":"tracking:checkpoint"},{"rt":8132,"responses":"{\"Q0\":\"3\"}","scenario":"\"dictionary-1\"","tool":"{}","trial_type":"survey-likert","trial_index":26,"time_elapsed":168246,"internal_node_id":"0.0-26.0","uuid":"99e0eb14-f5b9-48d0-9c78-23fe54e7d036","data_type":"study:data"},{"description":"trials-1-8","dropoutCode":0,"uuid":"99e0eb14-f5b9-48d0-9c78-23fe54e7d036","data_type":"tracking:checkpoint"},{"rt":15992,"responses":"{\"Q0\":\"3\"}","scenario":"\"dictionary-2\"","tool":"{}","trial_type":"survey-likert","trial_index":29,"time_elapsed":185243,"internal_node_id":"0.0-29.0","uuid":"99e0eb14-f5b9-48d0-9c78-23fe54e7d036","data_type":"study:data"},{"description":"trials-1-9","dropoutCode":0,"uuid":"99e0eb14-f5b9-48d0-9c78-23fe54e7d036","data_type":"tracking:checkpoint"},{"rt":15232,"responses":"{\"Q0\":\"3\"}","scenario":"\"instagram-2\"","tool":"{}","trial_type":"survey-likert","trial_index":32,"time_elapsed":201482,"internal_node_id":"0.0-32.0","uuid":"99e0eb14-f5b9-48d0-9c78-23fe54e7d036","data_type":"study:data"},{"description":"trials-1-10","dropoutCode":0,"uuid":"99e0eb14-f5b9-48d0-9c78-23fe54e7d036","data_type":"tracking:checkpoint"},{"rt":11412,"responses":"{\"Q0\":\"1\"}","scenario":"\"apple-1\"","tool":"{}","trial_type":"survey-likert","trial_index":35,"time_elapsed":213900,"internal_node_id":"0.0-35.0","uuid":"99e0eb14-f5b9-48d0-9c78-23fe54e7d036","data_type":"study:data"},{"description":"mid-trial break","dropoutCode":0,"uuid":"99e0eb14-f5b9-48d0-9c78-23fe54e7d036","data_type":"tracking:checkpoint"},{"description":"instructions","dropoutCode":0,"uuid":"99e0eb14-f5b9-48d0-9c78-23fe54e7d036","data_type":"tracking:checkpoint"},{"contentLanguage":"en","city":"not_fetched_or_initialized","country":"not_fetched_or_initialized","uuid":"25489783-3d73-4edd-9903-2ceb966fe7f5","data_type":"litw:initialize"},{"description":"irb","dropoutCode":0,"uuid":"25489783-3d73-4edd-9903-2ceb966fe7f5","data_type":"tracking:checkpoint"},{"description":"demographics","dropoutCode":0,"uuid":"25489783-3d73-4edd-9903-2ceb966fe7f5","data_type":"tracking:checkpoint"},{"description":"practice-1","dropoutCode":0,"uuid":"99e0eb14-f5b9-48d0-9c78-23fe54e7d036","data_type":"tracking:checkpoint"},{"rt":9475,"responses":"{\"Q0\":\"Yes\"}","questions":"[\"Would mind if this website knew your bank account number?\"]","website":"\"twitter\"","tool":"{}","trial_type":"survey-multi-choice","trial_index":41,"time_elapsed":316370,"internal_node_id":"0.0-41.0","uuid":"99e0eb14-f5b9-48d0-9c78-23fe54e7d036","data_type":"study:data"},{"description":"pre-trial break","dropoutCode":0,"uuid":"99e0eb14-f5b9-48d0-9c78-23fe54e7d036","data_type":"tracking:checkpoint"},{"description":"trials-2-1","dropoutCode":0,"uuid":"99e0eb14-f5b9-48d0-9c78-23fe54e7d036","data_type":"tracking:checkpoint"},{"description":"trials-2-2","dropoutCode":0,"uuid":"99e0eb14-f5b9-48d0-9c78-23fe54e7d036","data_type":"tracking:checkpoint"},{"rt":18057,"responses":"{\"Q0\":\"No\",\"Q1\":\"Maybe\",\"Q2\":\"Yes\"}","questions":"[\"employment\",\"dietary\",\"bank\"]","website":"\"whatsapp\"","tool":"{}","trial_type":"survey-multi-choice","trial_index":46,"time_elapsed":338591,"internal_node_id":"0.0-46.0","uuid":"99e0eb14-f5b9-48d0-9c78-23fe54e7d036","data_type":"study:data"},{"description":"trials-2-3","dropoutCode":0,"uuid":"99e0eb14-f5b9-48d0-9c78-23fe54e7d036","data_type":"tracking:checkpoint"},{"rt":9648,"responses":"{\"Q0\":\"Yes\",\"Q1\":\"No\",\"Q2\":\"No\"}","questions":"[\"messages\",\"race\",\"fullname\"]","website":"\"apple\"","tool":"{}","trial_type":"survey-multi-choice","trial_index":49,"time_elapsed":349252,"internal_node_id":"0.0-49.0","uuid":"99e0eb14-f5b9-48d0-9c78-23fe54e7d036","data_type":"study:data"},{"rt":9213,"responses":"{\"Q0\":\"No\",\"Q1\":\"Yes\",\"Q2\":\"Maybe\"}","questions":"[\"address\",\"photos\",\"hobbies\"]","website":"\"amazon\"","tool":"{}","trial_type":"survey-multi-choice","trial_index":52,"time_elapsed":359477,"internal_node_id":"0.0-52.0","uuid":"99e0eb14-f5b9-48d0-9c78-23fe54e7d036","data_type":"study:data"},{"description":"trials-2-4","dropoutCode":0,"uuid":"99e0eb14-f5b9-48d0-9c78-23fe54e7d036","data_type":"tracking:checkpoint"},{"rt":11191,"responses":"{\"Q0\":\"Yes\",\"Q1\":\"No\",\"Q2\":\"Yes\"}","questions":"[\"contacts\",\"location\",\"emails\"]","website":"\"tripadvisor\"","tool":"{}","trial_type":"survey-multi-choice","trial_index":55,"time_elapsed":371677,"internal_node_id":"0.0-55.0","uuid":"99e0eb14-f5b9-48d0-9c78-23fe54e7d036","data_type":"study:data"},{"description":"trials-2-5","dropoutCode":0,"uuid":"99e0eb14-f5b9-48d0-9c78-23fe54e7d036","data_type":"tracking:checkpoint"},{"rt":14527,"responses":"{\"Q0\":\"Maybe\",\"Q1\":\"No\",\"Q2\":\"Yes\"}","questions":"[\"face\",\"religion\",\"creditcard\"]","website":"\"facebook\"","tool":"{}","trial_type":"survey-multi-choice","trial_index":58,"time_elapsed":387213,"internal_node_id":"0.0-58.0","uuid":"99e0eb14-f5b9-48d0-9c78-23fe54e7d036","data_type":"study:data"},{"description":"mid-trial break","dropoutCode":0,"uuid":"99e0eb14-f5b9-48d0-9c78-23fe54e7d036","data_type":"tracking:checkpoint"},{"description":"instructions","dropoutCode":0,"uuid":"99e0eb14-f5b9-48d0-9c78-23fe54e7d036","data_type":"tracking:checkpoint"},{"description":"practice-1","dropoutCode":0,"uuid":"99e0eb14-f5b9-48d0-9c78-23fe54e7d036","data_type":"tracking:checkpoint"},{"rt":11290,"responses":"{\"Q0\":\"I use this tool <strong>currently</strong>\"}","questions":"[\"Have you used this tool?\"]","website":"{}","tool":"\"browser\"","trial_type":"survey-multi-choice","trial_index":64,"time_elapsed":408669,"internal_node_id":"0.0-64.0","uuid":"99e0eb14-f5b9-48d0-9c78-23fe54e7d036","data_type":"study:data"},{"description":"pre-trial break","dropoutCode":0,"uuid":"99e0eb14-f5b9-48d0-9c78-23fe54e7d036","data_type":"tracking:checkpoint"},{"description":"trials-3-1","dropoutCode":0,"uuid":"99e0eb14-f5b9-48d0-9c78-23fe54e7d036","data_type":"tracking:checkpoint"},{"rt":10831,"responses":"{\"Q0\":\"I use this tool <strong>currently</strong>\"}","questions":"[\"Have you used this tool?\"]","website":"{}","tool":"\"anti-virus\"","trial_type":"survey-multi-choice","trial_index":69,"time_elapsed":423725,"internal_node_id":"0.0-69.0","uuid":"99e0eb14-f5b9-48d0-9c78-23fe54e7d036","data_type":"study:data"},{"description":"trials-3-2","dropoutCode":0,"uuid":"99e0eb14-f5b9-48d0-9c78-23fe54e7d036","data_type":"tracking:checkpoint"},{"rt":9863,"responses":"{\"Q0\":\"I have used this tool in the past and <strong>would</strong> be willing to use it again\"}","questions":"[\"Have you used this tool?\"]","website":"{}","tool":"\"private-email\"","trial_type":"survey-multi-choice","trial_index":72,"time_elapsed":434595,"internal_node_id":"0.0-72.0","uuid":"99e0eb14-f5b9-48d0-9c78-23fe54e7d036","data_type":"study:data"},{"description":"trials-3-3","dropoutCode":0,"uuid":"99e0eb14-f5b9-48d0-9c78-23fe54e7d036","data_type":"tracking:checkpoint"},{"description":"irb","dropoutCode":0,"uuid":"874f0c7a-b14f-45d1-a4e4-41650e43b23a","data_type":"tracking:checkpoint"},{"contentLanguage":"en","city":"not_fetched_or_initialized","country":"not_fetched_or_initialized","uuid":"874f0c7a-b14f-45d1-a4e4-41650e43b23a","data_type":"litw:initialize"},{"rt":5090,"responses":"{\"Q0\":\"I use this tool <strong>currently</strong>\"}","questions":"[\"Have you used this tool?\"]","website":"{}","tool":"\"encrypted-messaging\"","trial_type":"survey-multi-choice","trial_index":75,"time_elapsed":440692,"internal_node_id":"0.0-75.0","uuid":"99e0eb14-f5b9-48d0-9c78-23fe54e7d036","data_type":"study:data"},{"description":"trials-3-4","dropoutCode":0,"uuid":"99e0eb14-f5b9-48d0-9c78-23fe54e7d036","data_type":"tracking:checkpoint"},{"description":"demographics","dropoutCode":0,"uuid":"874f0c7a-b14f-45d1-a4e4-41650e43b23a","data_type":"tracking:checkpoint"},{"rt":6249,"responses":"{\"Q0\":\"I have used this tool in the past and <strong>would</strong> be willing to use it again\"}","questions":"[\"Have you used this tool?\"]","website":"{}","tool":"\"vpn\"","trial_type":"survey-multi-choice","trial_index":78,"time_elapsed":447949,"internal_node_id":"0.0-78.0","uuid":"99e0eb14-f5b9-48d0-9c78-23fe54e7d036","data_type":"study:data"},{"description":"trials-3-5","dropoutCode":0,"uuid":"99e0eb14-f5b9-48d0-9c78-23fe54e7d036","data_type":"tracking:checkpoint"},{"description":"trials-3-6","dropoutCode":0,"uuid":"99e0eb14-f5b9-48d0-9c78-23fe54e7d036","data_type":"tracking:checkpoint"},{"rt":7477,"responses":"{\"Q0\":\"I use this tool <strong>currently</strong>\"}","questions":"[\"Have you used this tool?\"]","website":"{}","tool":"\"password-manager\"","trial_type":"survey-multi-choice","trial_index":81,"time_elapsed":456430,"internal_node_id":"0.0-81.0","uuid":"99e0eb14-f5b9-48d0-9c78-23fe54e7d036","data_type":"study:data"},{"rt":6217,"responses":"{\"Q0\":\"I use this tool <strong>currently</strong>\"}","questions":"[\"Have you used this tool?\"]","website":"{}","tool":"\"anonymous-browser\"","trial_type":"survey-multi-choice","trial_index":84,"time_elapsed":463652,"internal_node_id":"0.0-84.0","uuid":"99e0eb14-f5b9-48d0-9c78-23fe54e7d036","data_type":"study:data"},{"description":"trials-3-7","dropoutCode":0,"uuid":"99e0eb14-f5b9-48d0-9c78-23fe54e7d036","data_type":"tracking:checkpoint"},{"description":"trials-3-8","dropoutCode":0,"uuid":"99e0eb14-f5b9-48d0-9c78-23fe54e7d036","data_type":"tracking:checkpoint"},{"rt":7657,"responses":"{\"Q0\":\"I use this tool <strong>currently</strong>\"}","questions":"[\"Have you used this tool?\"]","website":"{}","tool":"\"adblocker\"","trial_type":"survey-multi-choice","trial_index":87,"time_elapsed":472316,"internal_node_id":"0.0-87.0","uuid":"99e0eb14-f5b9-48d0-9c78-23fe54e7d036","data_type":"study:data"},{"rt":8481,"responses":"{\"Q0\":\"I have used this tool in the past and <strong>would</strong> be willing to use it again\"}","questions":"[\"Have you used this tool?\"]","website":"{}","tool":"\"third-party\"","trial_type":"survey-multi-choice","trial_index":90,"time_elapsed":481805,"internal_node_id":"0.0-90.0","uuid":"99e0eb14-f5b9-48d0-9c78-23fe54e7d036","data_type":"study:data"},{"general-comments":"","technical":"no","technical-comments":"","cheating":"no","cheating-comments":"","uuid":"99e0eb14-f5b9-48d0-9c78-23fe54e7d036","data_type":"study:comments"},{"riskFactor":5,"uuid":"99e0eb14-f5b9-48d0-9c78-23fe54e7d036"},{"retake":"0","age":"58","country0":"United Kingdom","education":"college","dataprivacy":"Yes","why":"I think it would be interesting","uuid":"874f0c7a-b14f-45d1-a4e4-41650e43b23a","data_type":"study:demographics"},{"description":"websiteUseSurvey","dropoutCode":0,"uuid":"874f0c7a-b14f-45d1-a4e4-41650e43b23a","data_type":"tracking:checkpoint"},{"dataType":"websiteUseSurvey","accuweather":"sometimes","allrecipes":"sometimes","amazon":"usedto","apple":"dontuse","bbc":"often","dictionary":"dontuse","ebay":"dontuse","expedia":"sometimes","facebook":"dontuse","gmail":"often","google":"often","google-maps":"often","instagram":"dontuse","linkedin":"often","netflix":"dontuse","nytimes":"dontuse","paypal":"dontuse","reddit":"dontuse","tripadvisor":"sometimes","twitter":"sometimes","whatsapp":"often","wikipedia":"often","youtube":"often","uuid":"874f0c7a-b14f-45d1-a4e4-41650e43b23a","data_type":"study:data"},{"description":"instructions","dropoutCode":0,"uuid":"874f0c7a-b14f-45d1-a4e4-41650e43b23a","data_type":"tracking:checkpoint"},{"description":"practice-1","dropoutCode":0,"uuid":"874f0c7a-b14f-45d1-a4e4-41650e43b23a","data_type":"tracking:checkpoint"},{"description":"pre-trial break","dropoutCode":0,"uuid":"874f0c7a-b14f-45d1-a4e4-41650e43b23a","data_type":"tracking:checkpoint"},{"rt":25193,"responses":"{\"Q0\":\"0\"}","scenario":"\"scenario-example\"","tool":"{}","trial_type":"survey-likert","trial_index":3,"time_elapsed":105821,"internal_node_id":"0.0-3.0","uuid":"874f0c7a-b14f-45d1-a4e4-41650e43b23a","data_type":"study:data"},{"description":"trials-1-1","dropoutCode":0,"uuid":"874f0c7a-b14f-45d1-a4e4-41650e43b23a","data_type":"tracking:checkpoint"},{"description":"trials-1-2","dropoutCode":0,"uuid":"874f0c7a-b14f-45d1-a4e4-41650e43b23a","data_type":"tracking:checkpoint"},{"rt":17737,"responses":"{\"Q0\":\"4\"}","scenario":"\"google-1\"","tool":"{}","trial_type":"survey-likert","trial_index":8,"time_elapsed":130613,"internal_node_id":"0.0-8.0","uuid":"874f0c7a-b14f-45d1-a4e4-41650e43b23a","data_type":"study:data"},{"description":"trials-1-3","dropoutCode":0,"uuid":"874f0c7a-b14f-45d1-a4e4-41650e43b23a","data_type":"tracking:checkpoint"},{"rt":13812,"responses":"{\"Q0\":\"3\"}","scenario":"\"wikipedia-2\"","tool":"{}","trial_type":"survey-likert","trial_index":11,"time_elapsed":145429,"internal_node_id":"0.0-11.0","uuid":"874f0c7a-b14f-45d1-a4e4-41650e43b23a","data_type":"study:data"},{"rt":12126,"responses":"{\"Q0\":\"3\"}","scenario":"\"ebay-1\"","tool":"{}","trial_type":"survey-likert","trial_index":14,"time_elapsed":158564,"internal_node_id":"0.0-14.0","uuid":"874f0c7a-b14f-45d1-a4e4-41650e43b23a","data_type":"study:data"},{"description":"trials-1-4","dropoutCode":0,"uuid":"874f0c7a-b14f-45d1-a4e4-41650e43b23a","data_type":"tracking:checkpoint"},{"rt":5109,"responses":"{\"Q0\":\"2\"}","scenario":"\"apple-1\"","tool":"{}","trial_type":"survey-likert","trial_index":17,"time_elapsed":164677,"internal_node_id":"0.0-17.0","uuid":"874f0c7a-b14f-45d1-a4e4-41650e43b23a","data_type":"study:data"},{"description":"trials-1-5","dropoutCode":0,"uuid":"874f0c7a-b14f-45d1-a4e4-41650e43b23a","data_type":"tracking:checkpoint"},{"rt":11269,"responses":"{\"Q0\":\"4\"}","scenario":"\"whatsapp-1\"","tool":"{}","trial_type":"survey-likert","trial_index":20,"time_elapsed":176950,"internal_node_id":"0.0-20.0","uuid":"874f0c7a-b14f-45d1-a4e4-41650e43b23a","data_type":"study:data"},{"description":"trials-1-6","dropoutCode":0,"uuid":"874f0c7a-b14f-45d1-a4e4-41650e43b23a","data_type":"tracking:checkpoint"},{"rt":11579,"responses":"{\"Q0\":\"4\"}","scenario":"\"expedia-facebook-2\"","tool":"{}","trial_type":"survey-likert","trial_index":23,"time_elapsed":189533,"internal_node_id":"0.0-23.0","uuid":"874f0c7a-b14f-45d1-a4e4-41650e43b23a","data_type":"study:data"},{"description":"trials-1-7","dropoutCode":0,"uuid":"874f0c7a-b14f-45d1-a4e4-41650e43b23a","data_type":"tracking:checkpoint"},{"rt":11987,"responses":"{\"Q0\":\"3\"}","scenario":"\"bbc-2-2\"","tool":"{}","trial_type":"survey-likert","trial_index":26,"time_elapsed":202524,"internal_node_id":"0.0-26.0","uuid":"874f0c7a-b14f-45d1-a4e4-41650e43b23a","data_type":"study:data"},{"description":"trials-1-8","dropoutCode":0,"uuid":"874f0c7a-b14f-45d1-a4e4-41650e43b23a","data_type":"tracking:checkpoint"},{"description":"trials-1-9","dropoutCode":0,"uuid":"874f0c7a-b14f-45d1-a4e4-41650e43b23a","data_type":"tracking:checkpoint"},{"rt":5699,"responses":"{\"Q0\":\"2\"}","scenario":"\"facebook-4\"","tool":"{}","trial_type":"survey-likert","trial_index":29,"time_elapsed":209228,"internal_node_id":"0.0-29.0","uuid":"874f0c7a-b14f-45d1-a4e4-41650e43b23a","data_type":"study:data"},{"rt":4900,"responses":"{\"Q0\":\"2\"}","scenario":"\"facebook-1-2\"","tool":"{}","trial_type":"survey-likert","trial_index":32,"time_elapsed":215132,"internal_node_id":"0.0-32.0","uuid":"874f0c7a-b14f-45d1-a4e4-41650e43b23a","data_type":"study:data"},{"description":"trials-1-10","dropoutCode":0,"uuid":"874f0c7a-b14f-45d1-a4e4-41650e43b23a","data_type":"tracking:checkpoint"},{"rt":3861,"responses":"{\"Q0\":\"2\"}","scenario":"\"dictionary-2\"","tool":"{}","trial_type":"survey-likert","trial_index":35,"time_elapsed":219997,"internal_node_id":"0.0-35.0","uuid":"874f0c7a-b14f-45d1-a4e4-41650e43b23a","data_type":"study:data"},{"description":"mid-trial break","dropoutCode":0,"uuid":"874f0c7a-b14f-45d1-a4e4-41650e43b23a","data_type":"tracking:checkpoint"},{"description":"instructions","dropoutCode":0,"uuid":"874f0c7a-b14f-45d1-a4e4-41650e43b23a","data_type":"tracking:checkpoint"},{"description":"practice-1","dropoutCode":0,"uuid":"874f0c7a-b14f-45d1-a4e4-41650e43b23a","data_type":"tracking:checkpoint"},{"rt":6795,"responses":"{\"Q0\":\"Yes\"}","questions":"[\"Would mind if this website knew your bank account number?\"]","website":"\"twitter\"","tool":"{}","trial_type":"survey-multi-choice","trial_index":41,"time_elapsed":240848,"internal_node_id":"0.0-41.0","uuid":"874f0c7a-b14f-45d1-a4e4-41650e43b23a","data_type":"study:data"},{"description":"pre-trial break","dropoutCode":0,"uuid":"874f0c7a-b14f-45d1-a4e4-41650e43b23a","data_type":"tracking:checkpoint"},{"description":"trials-2-1","dropoutCode":0,"uuid":"874f0c7a-b14f-45d1-a4e4-41650e43b23a","data_type":"tracking:checkpoint"},{"description":"trials-2-2","dropoutCode":0,"uuid":"874f0c7a-b14f-45d1-a4e4-41650e43b23a","data_type":"tracking:checkpoint"},{"rt":76913,"responses":"{\"Q0\":\"Yes\",\"Q1\":\"Yes\",\"Q2\":\"Yes\"}","questions":"[\"fingerprint\",\"bank\",\"Would you mind if this website knew if you were politcally left or right leaning?\"]","website":"\"apple\"","tool":"{}","trial_type":"survey-multi-choice","trial_index":46,"time_elapsed":322903,"internal_node_id":"0.0-46.0","uuid":"874f0c7a-b14f-45d1-a4e4-41650e43b23a","data_type":"study:data"},{"description":"irb","dropoutCode":0,"uuid":"9331279f-3dfc-4976-a8ca-9a393a05ec08","data_type":"tracking:checkpoint"},{"contentLanguage":"cs","city":"not_fetched_or_initialized","country":"not_fetched_or_initialized","uuid":"9331279f-3dfc-4976-a8ca-9a393a05ec08","data_type":"litw:initialize"},{"description":"demographics","dropoutCode":0,"uuid":"9331279f-3dfc-4976-a8ca-9a393a05ec08","data_type":"tracking:checkpoint"},{"description":"trials-2-3","dropoutCode":0,"uuid":"874f0c7a-b14f-45d1-a4e4-41650e43b23a","data_type":"tracking:checkpoint"},{"rt":149360,"responses":"{\"Q0\":\"Yes\",\"Q1\":\"Yes\",\"Q2\":\"Yes\"}","questions":"[\"deviceID\",\"contacts\",\"history\"]","website":"\"wikipedia\"","tool":"{}","trial_type":"survey-multi-choice","trial_index":49,"time_elapsed":473269,"internal_node_id":"0.0-49.0","uuid":"874f0c7a-b14f-45d1-a4e4-41650e43b23a","data_type":"study:data"},{"retake":"0","age":"31","country0":"United Kingdom","education":"graduate school","dataprivacy":"Yes","why":"I think it would be interesting","uuid":"9331279f-3dfc-4976-a8ca-9a393a05ec08","data_type":"study:demographics"},{"description":"websiteUseSurvey","dropoutCode":0,"uuid":"9331279f-3dfc-4976-a8ca-9a393a05ec08","data_type":"tracking:checkpoint"},{"description":"trials-2-4","dropoutCode":0,"uuid":"874f0c7a-b14f-45d1-a4e4-41650e43b23a","data_type":"tracking:checkpoint"},{"rt":12119,"responses":"{\"Q0\":\"Yes\",\"Q1\":\"Yes\",\"Q2\":\"Yes\"}","questions":"[\"bankaccount\",\"fullname\",\"hobbies\"]","website":"\"reddit\"","tool":"{}","trial_type":"survey-multi-choice","trial_index":52,"time_elapsed":486395,"internal_node_id":"0.0-52.0","uuid":"874f0c7a-b14f-45d1-a4e4-41650e43b23a","data_type":"study:data"},{"description":"trials-2-5","dropoutCode":0,"uuid":"874f0c7a-b14f-45d1-a4e4-41650e43b23a","data_type":"tracking:checkpoint"},{"rt":14874,"responses":"{\"Q0\":\"Yes\",\"Q1\":\"Yes\",\"Q2\":\"Maybe\"}","questions":"[\"dietary\",\"messages\",\"device\"]","website":"\"ny_times\"","tool":"{}","trial_type":"survey-multi-choice","trial_index":55,"time_elapsed":502276,"internal_node_id":"0.0-55.0","uuid":"874f0c7a-b14f-45d1-a4e4-41650e43b23a","data_type":"study:data"},{"rt":12241,"responses":"{\"Q0\":\"Yes\",\"Q1\":\"Yes\",\"Q2\":\"Yes\"}","questions":"[\"passport\",\"emails\",\"employment\"]","website":"\"allrecipes\"","tool":"{}","trial_type":"survey-multi-choice","trial_index":58,"time_elapsed":515524,"internal_node_id":"0.0-58.0","uuid":"874f0c7a-b14f-45d1-a4e4-41650e43b23a","data_type":"study:data"},{"description":"mid-trial break","dropoutCode":0,"uuid":"874f0c7a-b14f-45d1-a4e4-41650e43b23a","data_type":"tracking:checkpoint"},{"description":"instructions","dropoutCode":0,"uuid":"874f0c7a-b14f-45d1-a4e4-41650e43b23a","data_type":"tracking:checkpoint"},{"description":"practice-1","dropoutCode":0,"uuid":"874f0c7a-b14f-45d1-a4e4-41650e43b23a","data_type":"tracking:checkpoint"},{"rt":31231,"responses":"{\"Q0\":\"I don't use this tool currently but <strong>I would be</strong> willing to use it\"}","questions":"[\"Have you used this tool?\"]","website":"{}","tool":"\"browser\"","trial_type":"survey-multi-choice","trial_index":64,"time_elapsed":560478,"internal_node_id":"0.0-64.0","uuid":"874f0c7a-b14f-45d1-a4e4-41650e43b23a","data_type":"study:data"},{"description":"pre-trial break","dropoutCode":0,"uuid":"874f0c7a-b14f-45d1-a4e4-41650e43b23a","data_type":"tracking:checkpoint"},{"dataType":"websiteUseSurvey","accuweather":"never","allrecipes":"never","amazon":"sometimes","apple":"dontuse","bbc":"often","dictionary":"never","ebay":"dontuse","expedia":"never","facebook":"dontuse","gmail":"sometimes","google":"often","google-maps":"often","instagram":"sometimes","linkedin":"often","netflix":"dontuse","nytimes":"sometimes","paypal":"sometimes","reddit":"sometimes","tripadvisor":"sometimes","twitter":"dontuse","whatsapp":"dontuse","wikipedia":"often","youtube":"often","uuid":"9331279f-3dfc-4976-a8ca-9a393a05ec08","data_type":"study:data"},{"description":"instructions","dropoutCode":0,"uuid":"9331279f-3dfc-4976-a8ca-9a393a05ec08","data_type":"tracking:checkpoint"},{"description":"trials-3-1","dropoutCode":0,"uuid":"874f0c7a-b14f-45d1-a4e4-41650e43b23a","data_type":"tracking:checkpoint"},{"description":"practice-1","dropoutCode":0,"uuid":"9331279f-3dfc-4976-a8ca-9a393a05ec08","data_type":"tracking:checkpoint"},{"rt":15734,"responses":"{\"Q0\":\"I have used this tool in the past and <strong>would</strong> be willing to use it again\"}","questions":"[\"Have you used this tool?\"]","website":"{}","tool":"\"private-email\"","trial_type":"survey-multi-choice","trial_index":69,"time_elapsed":580977,"internal_node_id":"0.0-69.0","uuid":"874f0c7a-b14f-45d1-a4e4-41650e43b23a","data_type":"study:data"},{"description":"trials-3-2","dropoutCode":0,"uuid":"874f0c7a-b14f-45d1-a4e4-41650e43b23a","data_type":"tracking:checkpoint"},{"rt":6284,"responses":"{\"Q0\":\"I have used this tool in the past and <strong>would</strong> be willing to use it again\"}","questions":"[\"Have you used this tool?\"]","website":"{}","tool":"\"adblocker\"","trial_type":"survey-multi-choice","trial_index":72,"time_elapsed":588268,"internal_node_id":"0.0-72.0","uuid":"874f0c7a-b14f-45d1-a4e4-41650e43b23a","data_type":"study:data"},{"description":"trials-3-3","dropoutCode":0,"uuid":"874f0c7a-b14f-45d1-a4e4-41650e43b23a","data_type":"tracking:checkpoint"},{"rt":4977,"responses":"{\"Q0\":\"I have used this tool in the past and <strong>would</strong> be willing to use it again\"}","questions":"[\"Have you used this tool?\"]","website":"{}","tool":"\"vpn\"","trial_type":"survey-multi-choice","trial_index":75,"time_elapsed":594252,"internal_node_id":"0.0-75.0","uuid":"874f0c7a-b14f-45d1-a4e4-41650e43b23a","data_type":"study:data"},{"description":"trials-3-4","dropoutCode":0,"uuid":"874f0c7a-b14f-45d1-a4e4-41650e43b23a","data_type":"tracking:checkpoint"},{"rt":11674,"responses":"{\"Q0\":\"I use this tool <strong>currently</strong>\"}","questions":"[\"Have you used this tool?\"]","website":"{}","tool":"\"anonymous-browser\"","trial_type":"survey-multi-choice","trial_index":78,"time_elapsed":606931,"internal_node_id":"0.0-78.0","uuid":"874f0c7a-b14f-45d1-a4e4-41650e43b23a","data_type":"study:data"},{"description":"trials-3-5","dropoutCode":0,"uuid":"874f0c7a-b14f-45d1-a4e4-41650e43b23a","data_type":"tracking:checkpoint"},{"rt":34002,"responses":"{\"Q0\":\"2\"}","scenario":"\"scenario-example\"","tool":"{}","trial_type":"survey-likert","trial_index":3,"time_elapsed":130558,"internal_node_id":"0.0-3.0","uuid":"9331279f-3dfc-4976-a8ca-9a393a05ec08","data_type":"study:data"},{"description":"pre-trial break","dropoutCode":0,"uuid":"9331279f-3dfc-4976-a8ca-9a393a05ec08","data_type":"tracking:checkpoint"},{"description":"trials-3-6","dropoutCode":0,"uuid":"874f0c7a-b14f-45d1-a4e4-41650e43b23a","data_type":"tracking:checkpoint"},{"rt":11404,"responses":"{\"Q0\":\"I use this tool <strong>currently</strong>\"}","questions":"[\"Have you used this tool?\"]","website":"{}","tool":"\"password-manager\"","trial_type":"survey-multi-choice","trial_index":81,"time_elapsed":619339,"internal_node_id":"0.0-81.0","uuid":"874f0c7a-b14f-45d1-a4e4-41650e43b23a","data_type":"study:data"},{"description":"trials-1-1","dropoutCode":0,"uuid":"9331279f-3dfc-4976-a8ca-9a393a05ec08","data_type":"tracking:checkpoint"},{"rt":3010,"responses":"{\"Q0\":\"I use this tool <strong>currently</strong>\"}","questions":"[\"Have you used this tool?\"]","website":"{}","tool":"\"anti-virus\"","trial_type":"survey-multi-choice","trial_index":84,"time_elapsed":623355,"internal_node_id":"0.0-84.0","uuid":"874f0c7a-b14f-45d1-a4e4-41650e43b23a","data_type":"study:data"},{"description":"trials-3-7","dropoutCode":0,"uuid":"874f0c7a-b14f-45d1-a4e4-41650e43b23a","data_type":"tracking:checkpoint"},{"rt":9211,"responses":"{\"Q0\":\"I have used this tool in the past and <strong>would</strong> be willing to use it again\"}","questions":"[\"Have you used this tool?\"]","website":"{}","tool":"\"encrypted-messaging\"","trial_type":"survey-multi-choice","trial_index":87,"time_elapsed":633571,"internal_node_id":"0.0-87.0","uuid":"874f0c7a-b14f-45d1-a4e4-41650e43b23a","data_type":"study:data"},{"description":"trials-3-8","dropoutCode":0,"uuid":"874f0c7a-b14f-45d1-a4e4-41650e43b23a","data_type":"tracking:checkpoint"},{"rt":6276,"responses":"{\"Q0\":\"I don't use this tool currently and <strong>I would not</strong> be willing to use it\"}","questions":"[\"Have you used this tool?\"]","website":"{}","tool":"\"third-party\"","trial_type":"survey-multi-choice","trial_index":90,"time_elapsed":640852,"internal_node_id":"0.0-90.0","uuid":"874f0c7a-b14f-45d1-a4e4-41650e43b23a","data_type":"study:data"},{"rt":52215,"responses":"{\"Q0\":\"4\"}","scenario":"\"allrecipes\"","tool":"{}","trial_type":"survey-likert","trial_index":8,"time_elapsed":191418,"internal_node_id":"0.0-8.0","uuid":"9331279f-3dfc-4976-a8ca-9a393a05ec08","data_type":"study:data"},{"description":"trials-1-2","dropoutCode":0,"uuid":"9331279f-3dfc-4976-a8ca-9a393a05ec08","data_type":"tracking:checkpoint"},{"general-comments":" A very interesting survey with thought provoking questions.","technical":"no","technical-comments":"","cheating":"no","cheating-comments":"","uuid":"874f0c7a-b14f-45d1-a4e4-41650e43b23a","data_type":"study:comments"},{"riskFactor":3,"uuid":"874f0c7a-b14f-45d1-a4e4-41650e43b23a"},{"rt":28806,"responses":"{\"Q0\":\"2\"}","scenario":"\"wikipedia-1\"","tool":"{}","trial_type":"survey-likert","trial_index":11,"time_elapsed":221246,"internal_node_id":"0.0-11.0","uuid":"9331279f-3dfc-4976-a8ca-9a393a05ec08","data_type":"study:data"},{"description":"trials-1-3","dropoutCode":0,"uuid":"9331279f-3dfc-4976-a8ca-9a393a05ec08","data_type":"tracking:checkpoint"},{"rt":16660,"responses":"{\"Q0\":\"4\"}","scenario":"\"facebook-4\"","tool":"{}","trial_type":"survey-likert","trial_index":14,"time_elapsed":238921,"internal_node_id":"0.0-14.0","uuid":"9331279f-3dfc-4976-a8ca-9a393a05ec08","data_type":"study:data"},{"description":"trials-1-4","dropoutCode":0,"uuid":"9331279f-3dfc-4976-a8ca-9a393a05ec08","data_type":"tracking:checkpoint"},{"rt":32219,"responses":"{\"Q0\":\"2\"}","scenario":"\"ebay-2\"","tool":"{}","trial_type":"survey-likert","trial_index":17,"time_elapsed":272158,"internal_node_id":"0.0-17.0","uuid":"9331279f-3dfc-4976-a8ca-9a393a05ec08","data_type":"study:data"},{"description":"trials-1-5","dropoutCode":0,"uuid":"9331279f-3dfc-4976-a8ca-9a393a05ec08","data_type":"tracking:checkpoint"},{"contentLanguage":"en","city":"not_fetched_or_initialized","country":"not_fetched_or_initialized","uuid":"1ad52f0e-afb6-494e-a303-aee0ed7329c8","data_type":"litw:initialize"},{"description":"irb","dropoutCode":0,"uuid":"1ad52f0e-afb6-494e-a303-aee0ed7329c8","data_type":"tracking:checkpoint"},{"rt":30964,"responses":"{\"Q0\":\"2\"}","scenario":"\"accuweather-facebook\"","tool":"{}","trial_type":"survey-likert","trial_index":20,"time_elapsed":304135,"internal_node_id":"0.0-20.0","uuid":"9331279f-3dfc-4976-a8ca-9a393a05ec08","data_type":"study:data"},{"description":"trials-1-6","dropoutCode":0,"uuid":"9331279f-3dfc-4976-a8ca-9a393a05ec08","data_type":"tracking:checkpoint"},{"rt":51570,"responses":"{\"Q0\":\"3\"}","scenario":"\"twitter-2\"","tool":"{}","trial_type":"survey-likert","trial_index":23,"time_elapsed":356719,"internal_node_id":"0.0-23.0","uuid":"9331279f-3dfc-4976-a8ca-9a393a05ec08","data_type":"study:data"},{"description":"trials-1-7","dropoutCode":0,"uuid":"9331279f-3dfc-4976-a8ca-9a393a05ec08","data_type":"tracking:checkpoint"},{"description":"trials-1-8","dropoutCode":0,"uuid":"9331279f-3dfc-4976-a8ca-9a393a05ec08","data_type":"tracking:checkpoint"},{"rt":17933,"responses":"{\"Q0\":\"3\"}","scenario":"\"facebook-2\"","tool":"{}","trial_type":"survey-likert","trial_index":26,"time_elapsed":375671,"internal_node_id":"0.0-26.0","uuid":"9331279f-3dfc-4976-a8ca-9a393a05ec08","data_type":"study:data"},{"description":"trials-1-9","dropoutCode":0,"uuid":"9331279f-3dfc-4976-a8ca-9a393a05ec08","data_type":"tracking:checkpoint"},{"rt":21313,"responses":"{\"Q0\":\"1\"}","scenario":"\"amazon-1\"","tool":"{}","trial_type":"survey-likert","trial_index":29,"time_elapsed":398003,"internal_node_id":"0.0-29.0","uuid":"9331279f-3dfc-4976-a8ca-9a393a05ec08","data_type":"study:data"},{"rt":24699,"responses":"{\"Q0\":\"3\"}","scenario":"\"tripadvisor-1\"","tool":"{}","trial_type":"survey-likert","trial_index":32,"time_elapsed":423735,"internal_node_id":"0.0-32.0","uuid":"9331279f-3dfc-4976-a8ca-9a393a05ec08","data_type":"study:data"},{"description":"trials-1-10","dropoutCode":0,"uuid":"9331279f-3dfc-4976-a8ca-9a393a05ec08","data_type":"tracking:checkpoint"},{"description":"demographics","dropoutCode":0,"uuid":"1ad52f0e-afb6-494e-a303-aee0ed7329c8","data_type":"tracking:checkpoint"},{"rt":27601,"responses":"{\"Q0\":\"3\"}","scenario":"\"paypal-1\"","tool":"{}","trial_type":"survey-likert","trial_index":35,"time_elapsed":452349,"internal_node_id":"0.0-35.0","uuid":"9331279f-3dfc-4976-a8ca-9a393a05ec08","data_type":"study:data"},{"description":"mid-trial break","dropoutCode":0,"uuid":"9331279f-3dfc-4976-a8ca-9a393a05ec08","data_type":"tracking:checkpoint"},{"description":"instructions","dropoutCode":0,"uuid":"9331279f-3dfc-4976-a8ca-9a393a05ec08","data_type":"tracking:checkpoint"},{"description":"practice-1","dropoutCode":0,"uuid":"9331279f-3dfc-4976-a8ca-9a393a05ec08","data_type":"tracking:checkpoint"},{"rt":10195,"responses":"{\"Q0\":\"Yes\"}","questions":"[\"Would mind if this website knew your bank account number?\"]","website":"\"twitter\"","tool":"{}","trial_type":"survey-multi-choice","trial_index":41,"time_elapsed":478806,"internal_node_id":"0.0-41.0","uuid":"9331279f-3dfc-4976-a8ca-9a393a05ec08","data_type":"study:data"},{"description":"pre-trial break","dropoutCode":0,"uuid":"9331279f-3dfc-4976-a8ca-9a393a05ec08","data_type":"tracking:checkpoint"},{"description":"trials-2-1","dropoutCode":0,"uuid":"9331279f-3dfc-4976-a8ca-9a393a05ec08","data_type":"tracking:checkpoint"},{"description":"trials-2-2","dropoutCode":0,"uuid":"9331279f-3dfc-4976-a8ca-9a393a05ec08","data_type":"tracking:checkpoint"},{"rt":24138,"responses":"{\"Q0\":\"Yes\",\"Q1\":\"Yes\",\"Q2\":\"Yes\"}","questions":"[\"address\",\"vote\",\"hobbies\"]","website":"\"google_maps\"","tool":"{}","trial_type":"survey-multi-choice","trial_index":46,"time_elapsed":507819,"internal_node_id":"0.0-46.0","uuid":"9331279f-3dfc-4976-a8ca-9a393a05ec08","data_type":"study:data"},{"rt":28909,"responses":"{\"Q0\":\"Yes\",\"Q1\":\"Yes\",\"Q2\":\"Maybe\"}","questions":"[\"emails\",\"messages\",\"fingerprint\"]","website":"\"whatsapp\"","tool":"{}","trial_type":"survey-multi-choice","trial_index":49,"time_elapsed":537754,"internal_node_id":"0.0-49.0","uuid":"9331279f-3dfc-4976-a8ca-9a393a05ec08","data_type":"study:data"},{"description":"trials-2-3","dropoutCode":0,"uuid":"9331279f-3dfc-4976-a8ca-9a393a05ec08","data_type":"tracking:checkpoint"},{"rt":39227,"responses":"{\"Q0\":\"Maybe\",\"Q1\":\"No\",\"Q2\":\"No\"}","questions":"[\"sexuality\",\"contacts\",\"fullname\"]","website":"\"gmail\"","tool":"{}","trial_type":"survey-multi-choice","trial_index":52,"time_elapsed":578010,"internal_node_id":"0.0-52.0","uuid":"9331279f-3dfc-4976-a8ca-9a393a05ec08","data_type":"study:data"},{"description":"trials-2-4","dropoutCode":0,"uuid":"9331279f-3dfc-4976-a8ca-9a393a05ec08","data_type":"tracking:checkpoint"},{"rt":13065,"responses":"{\"Q0\":\"Yes\",\"Q1\":\"Yes\",\"Q2\":\"Yes\"}","questions":"[\"bankaccount\",\"race\",\"religion\"]","website":"\"facebook\"","tool":"{}","trial_type":"survey-multi-choice","trial_index":55,"time_elapsed":592111,"internal_node_id":"0.0-55.0","uuid":"9331279f-3dfc-4976-a8ca-9a393a05ec08","data_type":"study:data"},{"description":"trials-2-5","dropoutCode":0,"uuid":"9331279f-3dfc-4976-a8ca-9a393a05ec08","data_type":"tracking:checkpoint"},{"description":"mid-trial break","dropoutCode":0,"uuid":"9331279f-3dfc-4976-a8ca-9a393a05ec08","data_type":"tracking:checkpoint"},{"rt":21711,"responses":"{\"Q0\":\"Yes\",\"Q1\":\"Yes\",\"Q2\":\"Yes\"}","questions":"[\"history\",\"bank\",\"deviceID\"]","website":"\"bbc\"","tool":"{}","trial_type":"survey-multi-choice","trial_index":58,"time_elapsed":614858,"internal_node_id":"0.0-58.0","uuid":"9331279f-3dfc-4976-a8ca-9a393a05ec08","data_type":"study:data"},{"description":"instructions","dropoutCode":0,"uuid":"9331279f-3dfc-4976-a8ca-9a393a05ec08","data_type":"tracking:checkpoint"},{"description":"practice-1","dropoutCode":0,"uuid":"9331279f-3dfc-4976-a8ca-9a393a05ec08","data_type":"tracking:checkpoint"},{"rt":9371,"responses":"{\"Q0\":\"I use this tool <strong>currently</strong>\"}","questions":"[\"Have you used this tool?\"]","website":"{}","tool":"\"browser\"","trial_type":"survey-multi-choice","trial_index":64,"time_elapsed":640938,"internal_node_id":"0.0-64.0","uuid":"9331279f-3dfc-4976-a8ca-9a393a05ec08","data_type":"study:data"},{"description":"pre-trial break","dropoutCode":0,"uuid":"9331279f-3dfc-4976-a8ca-9a393a05ec08","data_type":"tracking:checkpoint"},{"description":"trials-3-1","dropoutCode":0,"uuid":"9331279f-3dfc-4976-a8ca-9a393a05ec08","data_type":"tracking:checkpoint"},{"rt":26258,"responses":"{\"Q0\":\"I have used this tool in the past and <strong>would</strong> be willing to use it again\"}","questions":"[\"Have you used this tool?\"]","website":"{}","tool":"\"anonymous-browser\"","trial_type":"survey-multi-choice","trial_index":69,"time_elapsed":671610,"internal_node_id":"0.0-69.0","uuid":"9331279f-3dfc-4976-a8ca-9a393a05ec08","data_type":"study:data"},{"description":"trials-3-2","dropoutCode":0,"uuid":"9331279f-3dfc-4976-a8ca-9a393a05ec08","data_type":"tracking:checkpoint"},{"description":"trials-3-3","dropoutCode":0,"uuid":"9331279f-3dfc-4976-a8ca-9a393a05ec08","data_type":"tracking:checkpoint"},{"rt":10626,"responses":"{\"Q0\":\"I don't use this tool currently but <strong>I would be</strong> willing to use it\"}","questions":"[\"Have you used this tool?\"]","website":"{}","tool":"\"encrypted-messaging\"","trial_type":"survey-multi-choice","trial_index":72,"time_elapsed":683254,"internal_node_id":"0.0-72.0","uuid":"9331279f-3dfc-4976-a8ca-9a393a05ec08","data_type":"study:data"},{"description":"trials-3-4","dropoutCode":0,"uuid":"9331279f-3dfc-4976-a8ca-9a393a05ec08","data_type":"tracking:checkpoint"},{"rt":6744,"responses":"{\"Q0\":\"I don't use this tool currently but <strong>I would be</strong> willing to use it\"}","questions":"[\"Have you used this tool?\"]","website":"{}","tool":"\"password-manager\"","trial_type":"survey-multi-choice","trial_index":75,"time_elapsed":691026,"internal_node_id":"0.0-75.0","uuid":"9331279f-3dfc-4976-a8ca-9a393a05ec08","data_type":"study:data"},{"rt":7541,"responses":"{\"Q0\":\"I don't use this tool currently but <strong>I would be</strong> willing to use it\"}","questions":"[\"Have you used this tool?\"]","website":"{}","tool":"\"adblocker\"","trial_type":"survey-multi-choice","trial_index":78,"time_elapsed":699591,"internal_node_id":"0.0-78.0","uuid":"9331279f-3dfc-4976-a8ca-9a393a05ec08","data_type":"study:data"},{"description":"trials-3-5","dropoutCode":0,"uuid":"9331279f-3dfc-4976-a8ca-9a393a05ec08","data_type":"tracking:checkpoint"},{"rt":5303,"responses":"{\"Q0\":\"I use this tool <strong>currently</strong>\"}","questions":"[\"Have you used this tool?\"]","website":"{}","tool":"\"anti-virus\"","trial_type":"survey-multi-choice","trial_index":81,"time_elapsed":705916,"internal_node_id":"0.0-81.0","uuid":"9331279f-3dfc-4976-a8ca-9a393a05ec08","data_type":"study:data"},{"description":"trials-3-6","dropoutCode":0,"uuid":"9331279f-3dfc-4976-a8ca-9a393a05ec08","data_type":"tracking:checkpoint"},{"rt":15725,"responses":"{\"Q0\":\"I don't use this tool currently but <strong>I would be</strong> willing to use it\"}","questions":"[\"Have you used this tool?\"]","website":"{}","tool":"\"private-email\"","trial_type":"survey-multi-choice","trial_index":84,"time_elapsed":722660,"internal_node_id":"0.0-84.0","uuid":"9331279f-3dfc-4976-a8ca-9a393a05ec08","data_type":"study:data"},{"description":"trials-3-7","dropoutCode":0,"uuid":"9331279f-3dfc-4976-a8ca-9a393a05ec08","data_type":"tracking:checkpoint"},{"rt":6575,"responses":"{\"Q0\":\"I don't use this tool currently but <strong>I would be</strong> willing to use it\"}","questions":"[\"Have you used this tool?\"]","website":"{}","tool":"\"vpn\"","trial_type":"survey-multi-choice","trial_index":87,"time_elapsed":730265,"internal_node_id":"0.0-87.0","uuid":"9331279f-3dfc-4976-a8ca-9a393a05ec08","data_type":"study:data"},{"description":"trials-3-8","dropoutCode":0,"uuid":"9331279f-3dfc-4976-a8ca-9a393a05ec08","data_type":"tracking:checkpoint"},{"rt":10286,"responses":"{\"Q0\":\"I don't use this tool currently but <strong>I would be</strong> willing to use it\"}","questions":"[\"Have you used this tool?\"]","website":"{}","tool":"\"third-party\"","trial_type":"survey-multi-choice","trial_index":90,"time_elapsed":741569,"internal_node_id":"0.0-90.0","uuid":"9331279f-3dfc-4976-a8ca-9a393a05ec08","data_type":"study:data"},{"riskFactor":4,"uuid":"9331279f-3dfc-4976-a8ca-9a393a05ec08"},{"general-comments":"Sometimes I would prefer to provide more details. For instance, most of my answers change depending on whether I would actively register/log onto a website and decided to input the information myself.","technical":"no","technical-comments":"","cheating":"no","cheating-comments":"","uuid":"9331279f-3dfc-4976-a8ca-9a393a05ec08","data_type":"study:comments"},{"contentLanguage":"en","city":"not_fetched_or_initialized","country":"not_fetched_or_initialized","uuid":"bdbe70f7-631b-4b3a-84b5-a09516445a84","data_type":"litw:initialize"},{"description":"irb","dropoutCode":0,"uuid":"bdbe70f7-631b-4b3a-84b5-a09516445a84","data_type":"tracking:checkpoint"},{"description":"irb","dropoutCode":0,"uuid":"3714e3fc-cdc0-456a-a54a-bdca6a6c3a6c","data_type":"tracking:checkpoint"},{"contentLanguage":"en","city":"not_fetched_or_initialized","country":"not_fetched_or_initialized","uuid":"3714e3fc-cdc0-456a-a54a-bdca6a6c3a6c","data_type":"litw:initialize"},{"description":"demographics","dropoutCode":0,"uuid":"3714e3fc-cdc0-456a-a54a-bdca6a6c3a6c","data_type":"tracking:checkpoint"},{"retake":"0","age":"54","country0":"United Kingdom","education":"PhD","dataprivacy":"Yes","why":"I am concerned about how my data is used","uuid":"3714e3fc-cdc0-456a-a54a-bdca6a6c3a6c","data_type":"study:demographics"},{"description":"websiteUseSurvey","dropoutCode":0,"uuid":"3714e3fc-cdc0-456a-a54a-bdca6a6c3a6c","data_type":"tracking:checkpoint"},{"dataType":"websiteUseSurvey","accuweather":"dontuse","allrecipes":"never","amazon":"often","apple":"dontuse","bbc":"sometimes","dictionary":"sometimes","ebay":"sometimes","expedia":"sometimes","facebook":"often","gmail":"dontuse","google":"often","google-maps":"often","instagram":"dontuse","linkedin":"often","netflix":"dontuse","nytimes":"dontuse","paypal":"sometimes","reddit":"dontuse","tripadvisor":"sometimes","twitter":"often","whatsapp":"sometimes","wikipedia":"sometimes","youtube":"sometimes","uuid":"3714e3fc-cdc0-456a-a54a-bdca6a6c3a6c","data_type":"study:data"},{"description":"instructions","dropoutCode":0,"uuid":"3714e3fc-cdc0-456a-a54a-bdca6a6c3a6c","data_type":"tracking:checkpoint"},{"description":"practice-1","dropoutCode":0,"uuid":"3714e3fc-cdc0-456a-a54a-bdca6a6c3a6c","data_type":"tracking:checkpoint"},{"rt":22871,"responses":"{\"Q0\":\"1\"}","scenario":"\"scenario-example\"","tool":"{}","trial_type":"survey-likert","trial_index":3,"time_elapsed":264270,"internal_node_id":"0.0-3.0","uuid":"3714e3fc-cdc0-456a-a54a-bdca6a6c3a6c","data_type":"study:data"},{"description":"pre-trial break","dropoutCode":0,"uuid":"3714e3fc-cdc0-456a-a54a-bdca6a6c3a6c","data_type":"tracking:checkpoint"},{"description":"trials-1-1","dropoutCode":0,"uuid":"3714e3fc-cdc0-456a-a54a-bdca6a6c3a6c","data_type":"tracking:checkpoint"},{"rt":13116,"responses":"{\"Q0\":\"3\"}","scenario":"\"google-maps\"","tool":"{}","trial_type":"survey-likert","trial_index":8,"time_elapsed":285162,"internal_node_id":"0.0-8.0","uuid":"3714e3fc-cdc0-456a-a54a-bdca6a6c3a6c","data_type":"study:data"},{"description":"trials-1-2","dropoutCode":0,"uuid":"3714e3fc-cdc0-456a-a54a-bdca6a6c3a6c","data_type":"tracking:checkpoint"},{"rt":17887,"responses":"{\"Q0\":\"3\"}","scenario":"\"paypal-2\"","tool":"{}","trial_type":"survey-likert","trial_index":11,"time_elapsed":304066,"internal_node_id":"0.0-11.0","uuid":"3714e3fc-cdc0-456a-a54a-bdca6a6c3a6c","data_type":"study:data"},{"description":"trials-1-3","dropoutCode":0,"uuid":"3714e3fc-cdc0-456a-a54a-bdca6a6c3a6c","data_type":"tracking:checkpoint"},{"rt":13135,"responses":"{\"Q0\":\"4\"}","scenario":"\"gmail-work\"","tool":"{}","trial_type":"survey-likert","trial_index":14,"time_elapsed":318214,"internal_node_id":"0.0-14.0","uuid":"3714e3fc-cdc0-456a-a54a-bdca6a6c3a6c","data_type":"study:data"},{"description":"trials-1-4","dropoutCode":0,"uuid":"3714e3fc-cdc0-456a-a54a-bdca6a6c3a6c","data_type":"tracking:checkpoint"},{"rt":10140,"responses":"{\"Q0\":\"1\"}","scenario":"\"nytimes-3\"","tool":"{}","trial_type":"survey-likert","trial_index":17,"time_elapsed":329369,"internal_node_id":"0.0-17.0","uuid":"3714e3fc-cdc0-456a-a54a-bdca6a6c3a6c","data_type":"study:data"},{"description":"trials-1-5","dropoutCode":0,"uuid":"3714e3fc-cdc0-456a-a54a-bdca6a6c3a6c","data_type":"tracking:checkpoint"},{"rt":10595,"responses":"{\"Q0\":\"4\"}","scenario":"\"gmail-personal\"","tool":"{}","trial_type":"survey-likert","trial_index":20,"time_elapsed":340979,"internal_node_id":"0.0-20.0","uuid":"3714e3fc-cdc0-456a-a54a-bdca6a6c3a6c","data_type":"study:data"},{"description":"trials-1-6","dropoutCode":0,"uuid":"3714e3fc-cdc0-456a-a54a-bdca6a6c3a6c","data_type":"tracking:checkpoint"},{"rt":14967,"responses":"{\"Q0\":\"4\"}","scenario":"\"whatsapp-1\"","tool":"{}","trial_type":"survey-likert","trial_index":23,"time_elapsed":356963,"internal_node_id":"0.0-23.0","uuid":"3714e3fc-cdc0-456a-a54a-bdca6a6c3a6c","data_type":"study:data"},{"description":"trials-1-7","dropoutCode":0,"uuid":"3714e3fc-cdc0-456a-a54a-bdca6a6c3a6c","data_type":"tracking:checkpoint"},{"description":"trials-1-8","dropoutCode":0,"uuid":"3714e3fc-cdc0-456a-a54a-bdca6a6c3a6c","data_type":"tracking:checkpoint"},{"rt":6620,"responses":"{\"Q0\":\"1\"}","scenario":"\"wikipedia-2\"","tool":"{}","trial_type":"survey-likert","trial_index":26,"time_elapsed":364599,"internal_node_id":"0.0-26.0","uuid":"3714e3fc-cdc0-456a-a54a-bdca6a6c3a6c","data_type":"study:data"},{"rt":19192,"responses":"{\"Q0\":\"1\"}","scenario":"\"bbc-1\"","tool":"{}","trial_type":"survey-likert","trial_index":29,"time_elapsed":384805,"internal_node_id":"0.0-29.0","uuid":"3714e3fc-cdc0-456a-a54a-bdca6a6c3a6c","data_type":"study:data"},{"description":"trials-1-9","dropoutCode":0,"uuid":"3714e3fc-cdc0-456a-a54a-bdca6a6c3a6c","data_type":"tracking:checkpoint"},{"rt":7394,"responses":"{\"Q0\":\"0\"}","scenario":"\"dictionary-1\"","tool":"{}","trial_type":"survey-likert","trial_index":32,"time_elapsed":393220,"internal_node_id":"0.0-32.0","uuid":"3714e3fc-cdc0-456a-a54a-bdca6a6c3a6c","data_type":"study:data"},{"description":"trials-1-10","dropoutCode":0,"uuid":"3714e3fc-cdc0-456a-a54a-bdca6a6c3a6c","data_type":"tracking:checkpoint"},{"rt":17120,"responses":"{\"Q0\":\"1\"}","scenario":"\"ebay-1\"","tool":"{}","trial_type":"survey-likert","trial_index":35,"time_elapsed":411354,"internal_node_id":"0.0-35.0","uuid":"3714e3fc-cdc0-456a-a54a-bdca6a6c3a6c","data_type":"study:data"},{"description":"mid-trial break","dropoutCode":0,"uuid":"3714e3fc-cdc0-456a-a54a-bdca6a6c3a6c","data_type":"tracking:checkpoint"},{"description":"instructions","dropoutCode":0,"uuid":"3714e3fc-cdc0-456a-a54a-bdca6a6c3a6c","data_type":"tracking:checkpoint"},{"description":"practice-1","dropoutCode":0,"uuid":"3714e3fc-cdc0-456a-a54a-bdca6a6c3a6c","data_type":"tracking:checkpoint"},{"rt":5515,"responses":"{\"Q0\":\"Yes\"}","questions":"[\"Would mind if this website knew your bank account number?\"]","website":"\"twitter\"","tool":"{}","trial_type":"survey-multi-choice","trial_index":41,"time_elapsed":430420,"internal_node_id":"0.0-41.0","uuid":"3714e3fc-cdc0-456a-a54a-bdca6a6c3a6c","data_type":"study:data"},{"description":"pre-trial break","dropoutCode":0,"uuid":"3714e3fc-cdc0-456a-a54a-bdca6a6c3a6c","data_type":"tracking:checkpoint"},{"description":"trials-2-1","dropoutCode":0,"uuid":"3714e3fc-cdc0-456a-a54a-bdca6a6c3a6c","data_type":"tracking:checkpoint"},{"rt":20737,"responses":"{\"Q0\":\"Yes\",\"Q1\":\"Yes\",\"Q2\":\"Yes\"}","questions":"[\"messages\",\"creditcard\",\"fingerprint\"]","website":"\"twitter\"","tool":"{}","trial_type":"survey-multi-choice","trial_index":46,"time_elapsed":455753,"internal_node_id":"0.0-46.0","uuid":"3714e3fc-cdc0-456a-a54a-bdca6a6c3a6c","data_type":"study:data"},{"description":"trials-2-2","dropoutCode":0,"uuid":"3714e3fc-cdc0-456a-a54a-bdca6a6c3a6c","data_type":"tracking:checkpoint"},{"rt":20606,"responses":"{\"Q0\":\"Maybe\",\"Q1\":\"Yes\",\"Q2\":\"Yes\"}","questions":"[\"products\",\"deviceID\",\"passport\"]","website":"\"instagram\"","tool":"{}","trial_type":"survey-multi-choice","trial_index":49,"time_elapsed":477387,"internal_node_id":"0.0-49.0","uuid":"3714e3fc-cdc0-456a-a54a-bdca6a6c3a6c","data_type":"study:data"},{"description":"trials-2-3","dropoutCode":0,"uuid":"3714e3fc-cdc0-456a-a54a-bdca6a6c3a6c","data_type":"tracking:checkpoint"},{"rt":11583,"responses":"{\"Q0\":\"Yes\",\"Q1\":\"Yes\",\"Q2\":\"Yes\"}","questions":"[\"emails\",\"religion\",\"address\"]","website":"\"allrecipes\"","tool":"{}","trial_type":"survey-multi-choice","trial_index":52,"time_elapsed":490002,"internal_node_id":"0.0-52.0","uuid":"3714e3fc-cdc0-456a-a54a-bdca6a6c3a6c","data_type":"study:data"},{"description":"trials-2-4","dropoutCode":0,"uuid":"3714e3fc-cdc0-456a-a54a-bdca6a6c3a6c","data_type":"tracking:checkpoint"},{"rt":13626,"responses":"{\"Q0\":\"Yes\",\"Q1\":\"Yes\",\"Q2\":\"Maybe\"}","questions":"[\"sexuality\",\"employment\",\"fullname\"]","website":"\"dictionary\"","tool":"{}","trial_type":"survey-multi-choice","trial_index":55,"time_elapsed":504659,"internal_node_id":"0.0-55.0","uuid":"3714e3fc-cdc0-456a-a54a-bdca6a6c3a6c","data_type":"study:data"},{"description":"trials-2-5","dropoutCode":0,"uuid":"3714e3fc-cdc0-456a-a54a-bdca6a6c3a6c","data_type":"tracking:checkpoint"},{"rt":15962,"responses":"{\"Q0\":\"Yes\",\"Q1\":\"Yes\",\"Q2\":\"Maybe\"}","questions":"[\"race\",\"bankaccount\",\"dietary\"]","website":"\"tripadvisor\"","tool":"{}","trial_type":"survey-multi-choice","trial_index":58,"time_elapsed":521654,"internal_node_id":"0.0-58.0","uuid":"3714e3fc-cdc0-456a-a54a-bdca6a6c3a6c","data_type":"study:data"},{"description":"mid-trial break","dropoutCode":0,"uuid":"3714e3fc-cdc0-456a-a54a-bdca6a6c3a6c","data_type":"tracking:checkpoint"},{"description":"instructions","dropoutCode":0,"uuid":"3714e3fc-cdc0-456a-a54a-bdca6a6c3a6c","data_type":"tracking:checkpoint"},{"description":"practice-1","dropoutCode":0,"uuid":"3714e3fc-cdc0-456a-a54a-bdca6a6c3a6c","data_type":"tracking:checkpoint"},{"rt":11770,"responses":"{\"Q0\":\"I use this tool <strong>currently</strong>\"}","questions":"[\"Have you used this tool?\"]","website":"{}","tool":"\"browser\"","trial_type":"survey-multi-choice","trial_index":64,"time_elapsed":544926,"internal_node_id":"0.0-64.0","uuid":"3714e3fc-cdc0-456a-a54a-bdca6a6c3a6c","data_type":"study:data"},{"description":"pre-trial break","dropoutCode":0,"uuid":"3714e3fc-cdc0-456a-a54a-bdca6a6c3a6c","data_type":"tracking:checkpoint"},{"description":"trials-3-1","dropoutCode":0,"uuid":"3714e3fc-cdc0-456a-a54a-bdca6a6c3a6c","data_type":"tracking:checkpoint"},{"rt":14261,"responses":"{\"Q0\":\"I don't use this tool currently but <strong>I would be</strong> willing to use it\"}","questions":"[\"Have you used this tool?\"]","website":"{}","tool":"\"private-email\"","trial_type":"survey-multi-choice","trial_index":69,"time_elapsed":563627,"internal_node_id":"0.0-69.0","uuid":"3714e3fc-cdc0-456a-a54a-bdca6a6c3a6c","data_type":"study:data"},{"description":"trials-3-2","dropoutCode":0,"uuid":"3714e3fc-cdc0-456a-a54a-bdca6a6c3a6c","data_type":"tracking:checkpoint"},{"description":"trials-3-3","dropoutCode":0,"uuid":"3714e3fc-cdc0-456a-a54a-bdca6a6c3a6c","data_type":"tracking:checkpoint"},{"rt":14629,"responses":"{\"Q0\":\"I use this tool <strong>currently</strong>\"}","questions":"[\"Have you used this tool?\"]","website":"{}","tool":"\"third-party\"","trial_type":"survey-multi-choice","trial_index":72,"time_elapsed":579282,"internal_node_id":"0.0-72.0","uuid":"3714e3fc-cdc0-456a-a54a-bdca6a6c3a6c","data_type":"study:data"},{"description":"trials-3-4","dropoutCode":0,"uuid":"3714e3fc-cdc0-456a-a54a-bdca6a6c3a6c","data_type":"tracking:checkpoint"},{"rt":22927,"responses":"{\"Q0\":\"I have used this tool in the past and <strong>would</strong> be willing to use it again\"}","questions":"[\"Have you used this tool?\"]","website":"{}","tool":"\"anonymous-browser\"","trial_type":"survey-multi-choice","trial_index":75,"time_elapsed":603234,"internal_node_id":"0.0-75.0","uuid":"3714e3fc-cdc0-456a-a54a-bdca6a6c3a6c","data_type":"study:data"},{"description":"trials-3-5","dropoutCode":0,"uuid":"3714e3fc-cdc0-456a-a54a-bdca6a6c3a6c","data_type":"tracking:checkpoint"},{"rt":8525,"responses":"{\"Q0\":\"I use this tool <strong>currently</strong>\"}","questions":"[\"Have you used this tool?\"]","website":"{}","tool":"\"adblocker\"","trial_type":"survey-multi-choice","trial_index":78,"time_elapsed":612779,"internal_node_id":"0.0-78.0","uuid":"3714e3fc-cdc0-456a-a54a-bdca6a6c3a6c","data_type":"study:data"},{"rt":4635,"responses":"{\"Q0\":\"I use this tool <strong>currently</strong>\"}","questions":"[\"Have you used this tool?\"]","website":"{}","tool":"\"vpn\"","trial_type":"survey-multi-choice","trial_index":81,"time_elapsed":618424,"internal_node_id":"0.0-81.0","uuid":"3714e3fc-cdc0-456a-a54a-bdca6a6c3a6c","data_type":"study:data"},{"description":"trials-3-6","dropoutCode":0,"uuid":"3714e3fc-cdc0-456a-a54a-bdca6a6c3a6c","data_type":"tracking:checkpoint"},{"rt":2988,"responses":"{\"Q0\":\"I use this tool <strong>currently</strong>\"}","questions":"[\"Have you used this tool?\"]","website":"{}","tool":"\"anti-virus\"","trial_type":"survey-multi-choice","trial_index":84,"time_elapsed":622446,"internal_node_id":"0.0-84.0","uuid":"3714e3fc-cdc0-456a-a54a-bdca6a6c3a6c","data_type":"study:data"},{"description":"trials-3-7","dropoutCode":0,"uuid":"3714e3fc-cdc0-456a-a54a-bdca6a6c3a6c","data_type":"tracking:checkpoint"},{"rt":13532,"responses":"{\"Q0\":\"I don't use this tool currently but <strong>I would be</strong> willing to use it\"}","questions":"[\"Have you used this tool?\"]","website":"{}","tool":"\"password-manager\"","trial_type":"survey-multi-choice","trial_index":87,"time_elapsed":636998,"internal_node_id":"0.0-87.0","uuid":"3714e3fc-cdc0-456a-a54a-bdca6a6c3a6c","data_type":"study:data"},{"description":"trials-3-8","dropoutCode":0,"uuid":"3714e3fc-cdc0-456a-a54a-bdca6a6c3a6c","data_type":"tracking:checkpoint"},{"rt":7364,"responses":"{\"Q0\":\"I use this tool <strong>currently</strong>\"}","questions":"[\"Have you used this tool?\"]","website":"{}","tool":"\"encrypted-messaging\"","trial_type":"survey-multi-choice","trial_index":90,"time_elapsed":645383,"internal_node_id":"0.0-90.0","uuid":"3714e3fc-cdc0-456a-a54a-bdca6a6c3a6c","data_type":"study:data"},{"general-comments":"","technical":"no","technical-comments":"","cheating":"no","cheating-comments":"","uuid":"3714e3fc-cdc0-456a-a54a-bdca6a6c3a6c","data_type":"study:comments"},{"riskFactor":3,"uuid":"3714e3fc-cdc0-456a-a54a-bdca6a6c3a6c"},{"description":"irb","dropoutCode":0,"uuid":"6833e63d-9c47-4c3e-96f6-e094d6876c9d","data_type":"tracking:checkpoint"},{"contentLanguage":"en","city":"not_fetched_or_initialized","country":"not_fetched_or_initialized","uuid":"6833e63d-9c47-4c3e-96f6-e094d6876c9d","data_type":"litw:initialize"},{"description":"demographics","dropoutCode":0,"uuid":"6833e63d-9c47-4c3e-96f6-e094d6876c9d","data_type":"tracking:checkpoint"},{"retake":"0","age":"50","country0":"United Kingdom","education":"college","dataprivacy":"Yes","why":"I am concerned about how my data is used","uuid":"6833e63d-9c47-4c3e-96f6-e094d6876c9d","data_type":"study:demographics"},{"description":"websiteUseSurvey","dropoutCode":0,"uuid":"6833e63d-9c47-4c3e-96f6-e094d6876c9d","data_type":"tracking:checkpoint"},{"dataType":"websiteUseSurvey","accuweather":"never","allrecipes":"never","amazon":"often","apple":"often","bbc":"often","dictionary":"never","ebay":"often","expedia":"often","facebook":"often","gmail":"often","google":"often","google-maps":"often","instagram":"often","linkedin":"often","netflix":"often","nytimes":"dontuse","paypal":"dontuse","reddit":"dontuse","tripadvisor":"often","twitter":"often","wikipedia":"dontuse","youtube":"often","uuid":"6833e63d-9c47-4c3e-96f6-e094d6876c9d","data_type":"study:data"},{"description":"instructions","dropoutCode":0,"uuid":"6833e63d-9c47-4c3e-96f6-e094d6876c9d","data_type":"tracking:checkpoint"},{"description":"practice-1","dropoutCode":0,"uuid":"6833e63d-9c47-4c3e-96f6-e094d6876c9d","data_type":"tracking:checkpoint"},{"rt":12647,"responses":"{\"Q0\":\"0\"}","scenario":"\"scenario-example\"","tool":"{}","trial_type":"survey-likert","trial_index":3,"time_elapsed":96230,"internal_node_id":"0.0-3.0","uuid":"6833e63d-9c47-4c3e-96f6-e094d6876c9d","data_type":"study:data"},{"description":"pre-trial break","dropoutCode":0,"uuid":"6833e63d-9c47-4c3e-96f6-e094d6876c9d","data_type":"tracking:checkpoint"},{"description":"trials-1-1","dropoutCode":0,"uuid":"6833e63d-9c47-4c3e-96f6-e094d6876c9d","data_type":"tracking:checkpoint"},{"rt":22066,"responses":"{\"Q0\":\"0\"}","scenario":"\"dictionary-1\"","tool":"{}","trial_type":"survey-likert","trial_index":8,"time_elapsed":128819,"internal_node_id":"0.0-8.0","uuid":"6833e63d-9c47-4c3e-96f6-e094d6876c9d","data_type":"study:data"},{"description":"trials-1-2","dropoutCode":0,"uuid":"6833e63d-9c47-4c3e-96f6-e094d6876c9d","data_type":"tracking:checkpoint"},{"rt":32372,"responses":"{\"Q0\":\"4\"}","scenario":"\"google-1\"","tool":"{}","trial_type":"survey-likert","trial_index":11,"time_elapsed":162201,"internal_node_id":"0.0-11.0","uuid":"6833e63d-9c47-4c3e-96f6-e094d6876c9d","data_type":"study:data"},{"description":"trials-1-3","dropoutCode":0,"uuid":"6833e63d-9c47-4c3e-96f6-e094d6876c9d","data_type":"tracking:checkpoint"},{"rt":50673,"responses":"{\"Q0\":\"4\"}","scenario":"\"expedia-facebook\"","tool":"{}","trial_type":"survey-likert","trial_index":14,"time_elapsed":213883,"internal_node_id":"0.0-14.0","uuid":"6833e63d-9c47-4c3e-96f6-e094d6876c9d","data_type":"study:data"},{"description":"trials-1-4","dropoutCode":0,"uuid":"6833e63d-9c47-4c3e-96f6-e094d6876c9d","data_type":"tracking:checkpoint"},{"rt":14033,"responses":"{\"Q0\":\"3\"}","scenario":"\"reddit-1\"","tool":"{}","trial_type":"survey-likert","trial_index":17,"time_elapsed":228926,"internal_node_id":"0.0-17.0","uuid":"6833e63d-9c47-4c3e-96f6-e094d6876c9d","data_type":"study:data"},{"description":"trials-1-5","dropoutCode":0,"uuid":"6833e63d-9c47-4c3e-96f6-e094d6876c9d","data_type":"tracking:checkpoint"},{"rt":24271,"responses":"{\"Q0\":\"4\"}","scenario":"\"gmail-work\"","tool":"{}","trial_type":"survey-likert","trial_index":20,"time_elapsed":254206,"internal_node_id":"0.0-20.0","uuid":"6833e63d-9c47-4c3e-96f6-e094d6876c9d","data_type":"study:data"},{"description":"trials-1-6","dropoutCode":0,"uuid":"6833e63d-9c47-4c3e-96f6-e094d6876c9d","data_type":"tracking:checkpoint"},{"rt":17314,"responses":"{\"Q0\":\"1\"}","scenario":"\"tripadvisor-1\"","tool":"{}","trial_type":"survey-likert","trial_index":23,"time_elapsed":272529,"internal_node_id":"0.0-23.0","uuid":"6833e63d-9c47-4c3e-96f6-e094d6876c9d","data_type":"study:data"},{"description":"trials-1-7","dropoutCode":0,"uuid":"6833e63d-9c47-4c3e-96f6-e094d6876c9d","data_type":"tracking:checkpoint"},{"rt":13898,"responses":"{\"Q0\":\"4\"}","scenario":"\"whatsapp-1\"","tool":"{}","trial_type":"survey-likert","trial_index":26,"time_elapsed":287435,"internal_node_id":"0.0-26.0","uuid":"6833e63d-9c47-4c3e-96f6-e094d6876c9d","data_type":"study:data"},{"description":"trials-1-8","dropoutCode":0,"uuid":"6833e63d-9c47-4c3e-96f6-e094d6876c9d","data_type":"tracking:checkpoint"},{"description":"trials-1-9","dropoutCode":0,"uuid":"6833e63d-9c47-4c3e-96f6-e094d6876c9d","data_type":"tracking:checkpoint"},{"rt":20404,"responses":"{\"Q0\":\"1\"}","scenario":"\"wikipedia-1\"","tool":"{}","trial_type":"survey-likert","trial_index":29,"time_elapsed":308847,"internal_node_id":"0.0-29.0","uuid":"6833e63d-9c47-4c3e-96f6-e094d6876c9d","data_type":"study:data"},{"description":"trials-1-10","dropoutCode":0,"uuid":"6833e63d-9c47-4c3e-96f6-e094d6876c9d","data_type":"tracking:checkpoint"},{"rt":36460,"responses":"{\"Q0\":\"4\"}","scenario":"\"nytimes-3\"","tool":"{}","trial_type":"survey-likert","trial_index":32,"time_elapsed":346315,"internal_node_id":"0.0-32.0","uuid":"6833e63d-9c47-4c3e-96f6-e094d6876c9d","data_type":"study:data"},{"description":"mid-trial break","dropoutCode":0,"uuid":"6833e63d-9c47-4c3e-96f6-e094d6876c9d","data_type":"tracking:checkpoint"},{"rt":169676,"responses":"{\"Q0\":\"1\"}","scenario":"\"accuweather-facebook-2\"","tool":"{}","trial_type":"survey-likert","trial_index":35,"time_elapsed":516997,"internal_node_id":"0.0-35.0","uuid":"6833e63d-9c47-4c3e-96f6-e094d6876c9d","data_type":"study:data"},{"description":"instructions","dropoutCode":0,"uuid":"6833e63d-9c47-4c3e-96f6-e094d6876c9d","data_type":"tracking:checkpoint"},{"description":"practice-1","dropoutCode":0,"uuid":"6833e63d-9c47-4c3e-96f6-e094d6876c9d","data_type":"tracking:checkpoint"},{"rt":9042,"responses":"{\"Q0\":\"Yes\"}","questions":"[\"Would mind if this website knew your bank account number?\"]","website":"\"twitter\"","tool":"{}","trial_type":"survey-multi-choice","trial_index":41,"time_elapsed":545917,"internal_node_id":"0.0-41.0","uuid":"6833e63d-9c47-4c3e-96f6-e094d6876c9d","data_type":"study:data"},{"description":"pre-trial break","dropoutCode":0,"uuid":"6833e63d-9c47-4c3e-96f6-e094d6876c9d","data_type":"tracking:checkpoint"},{"description":"trials-2-1","dropoutCode":0,"uuid":"6833e63d-9c47-4c3e-96f6-e094d6876c9d","data_type":"tracking:checkpoint"},{"description":"trials-2-2","dropoutCode":0,"uuid":"6833e63d-9c47-4c3e-96f6-e094d6876c9d","data_type":"tracking:checkpoint"},{"rt":27834,"responses":"{\"Q0\":\"No\",\"Q1\":\"Yes\",\"Q2\":\"Yes\"}","questions":"[\"creditcard\",\"emails\",\"bankaccount\"]","website":"\"apple\"","tool":"{}","trial_type":"survey-multi-choice","trial_index":46,"time_elapsed":580736,"internal_node_id":"0.0-46.0","uuid":"6833e63d-9c47-4c3e-96f6-e094d6876c9d","data_type":"study:data"},{"rt":20525,"responses":"{\"Q0\":\"Maybe\",\"Q1\":\"Maybe\",\"Q2\":\"Yes\"}","questions":"[\"fullname\",\"photos\",\"passport\"]","website":"\"twitter\"","tool":"{}","trial_type":"survey-multi-choice","trial_index":49,"time_elapsed":602285,"internal_node_id":"0.0-49.0","uuid":"6833e63d-9c47-4c3e-96f6-e094d6876c9d","data_type":"study:data"},{"description":"trials-2-3","dropoutCode":0,"uuid":"6833e63d-9c47-4c3e-96f6-e094d6876c9d","data_type":"tracking:checkpoint"},{"rt":19620,"responses":"{\"Q0\":\"No\",\"Q1\":\"Yes\",\"Q2\":\"Yes\"}","questions":"[\"hobbies\",\"deviceID\",\"Would you mind if this website knew if you were politcally left or right leaning?\"]","website":"\"linkedin\"","tool":"{}","trial_type":"survey-multi-choice","trial_index":52,"time_elapsed":622916,"internal_node_id":"0.0-52.0","uuid":"6833e63d-9c47-4c3e-96f6-e094d6876c9d","data_type":"study:data"},{"description":"trials-2-4","dropoutCode":0,"uuid":"6833e63d-9c47-4c3e-96f6-e094d6876c9d","data_type":"tracking:checkpoint"},{"rt":23446,"responses":"{\"Q0\":\"No\",\"Q1\":\"Maybe\",\"Q2\":\"Maybe\"}","questions":"[\"fingerprint\",\"location\",\"bank\"]","website":"\"ebay\"","tool":"{}","trial_type":"survey-multi-choice","trial_index":55,"time_elapsed":647378,"internal_node_id":"0.0-55.0","uuid":"6833e63d-9c47-4c3e-96f6-e094d6876c9d","data_type":"study:data"},{"description":"trials-2-5","dropoutCode":0,"uuid":"6833e63d-9c47-4c3e-96f6-e094d6876c9d","data_type":"tracking:checkpoint"},{"rt":12344,"responses":"{\"Q0\":\"Yes\",\"Q1\":\"No\",\"Q2\":\"No\"}","questions":"[\"address\",\"products\",\"dietary\"]","website":"\"wikipedia\"","tool":"{}","trial_type":"survey-multi-choice","trial_index":58,"time_elapsed":660730,"internal_node_id":"0.0-58.0","uuid":"6833e63d-9c47-4c3e-96f6-e094d6876c9d","data_type":"study:data"},{"description":"mid-trial break","dropoutCode":0,"uuid":"6833e63d-9c47-4c3e-96f6-e094d6876c9d","data_type":"tracking:checkpoint"},{"description":"instructions","dropoutCode":0,"uuid":"6833e63d-9c47-4c3e-96f6-e094d6876c9d","data_type":"tracking:checkpoint"},{"description":"practice-1","dropoutCode":0,"uuid":"6833e63d-9c47-4c3e-96f6-e094d6876c9d","data_type":"tracking:checkpoint"},{"rt":24434,"responses":"{\"Q0\":\"I use this tool <strong>currently</strong>\"}","questions":"[\"Have you used this tool?\"]","website":"{}","tool":"\"browser\"","trial_type":"survey-multi-choice","trial_index":64,"time_elapsed":699094,"internal_node_id":"0.0-64.0","uuid":"6833e63d-9c47-4c3e-96f6-e094d6876c9d","data_type":"study:data"},{"description":"pre-trial break","dropoutCode":0,"uuid":"6833e63d-9c47-4c3e-96f6-e094d6876c9d","data_type":"tracking:checkpoint"},{"description":"trials-3-1","dropoutCode":0,"uuid":"6833e63d-9c47-4c3e-96f6-e094d6876c9d","data_type":"tracking:checkpoint"},{"description":"trials-3-2","dropoutCode":0,"uuid":"6833e63d-9c47-4c3e-96f6-e094d6876c9d","data_type":"tracking:checkpoint"},{"rt":14974,"responses":"{\"Q0\":\"I use this tool <strong>currently</strong>\"}","questions":"[\"Have you used this tool?\"]","website":"{}","tool":"\"encrypted-messaging\"","trial_type":"survey-multi-choice","trial_index":69,"time_elapsed":719036,"internal_node_id":"0.0-69.0","uuid":"6833e63d-9c47-4c3e-96f6-e094d6876c9d","data_type":"study:data"},{"description":"trials-3-3","dropoutCode":0,"uuid":"6833e63d-9c47-4c3e-96f6-e094d6876c9d","data_type":"tracking:checkpoint"},{"rt":16847,"responses":"{\"Q0\":\"I use this tool <strong>currently</strong>\"}","questions":"[\"Have you used this tool?\"]","website":"{}","tool":"\"vpn\"","trial_type":"survey-multi-choice","trial_index":72,"time_elapsed":736894,"internal_node_id":"0.0-72.0","uuid":"6833e63d-9c47-4c3e-96f6-e094d6876c9d","data_type":"study:data"},{"rt":28514,"responses":"{\"Q0\":\"I don't use this tool currently but <strong>I would be</strong> willing to use it\"}","questions":"[\"Have you used this tool?\"]","website":"{}","tool":"\"private-email\"","trial_type":"survey-multi-choice","trial_index":75,"time_elapsed":766421,"internal_node_id":"0.0-75.0","uuid":"6833e63d-9c47-4c3e-96f6-e094d6876c9d","data_type":"study:data"},{"description":"trials-3-4","dropoutCode":0,"uuid":"6833e63d-9c47-4c3e-96f6-e094d6876c9d","data_type":"tracking:checkpoint"},{"rt":24961,"responses":"{\"Q0\":\"I don't use this tool currently but <strong>I would be</strong> willing to use it\"}","questions":"[\"Have you used this tool?\"]","website":"{}","tool":"\"adblocker\"","trial_type":"survey-multi-choice","trial_index":78,"time_elapsed":792393,"internal_node_id":"0.0-78.0","uuid":"6833e63d-9c47-4c3e-96f6-e094d6876c9d","data_type":"study:data"},{"description":"trials-3-5","dropoutCode":0,"uuid":"6833e63d-9c47-4c3e-96f6-e094d6876c9d","data_type":"tracking:checkpoint"},{"description":"trials-3-6","dropoutCode":0,"uuid":"6833e63d-9c47-4c3e-96f6-e094d6876c9d","data_type":"tracking:checkpoint"},{"rt":19918,"responses":"{\"Q0\":\"I don't use this tool currently but <strong>I would be</strong> willing to use it\"}","questions":"[\"Have you used this tool?\"]","website":"{}","tool":"\"third-party\"","trial_type":"survey-multi-choice","trial_index":81,"time_elapsed":813323,"internal_node_id":"0.0-81.0","uuid":"6833e63d-9c47-4c3e-96f6-e094d6876c9d","data_type":"study:data"},{"description":"trials-3-7","dropoutCode":0,"uuid":"6833e63d-9c47-4c3e-96f6-e094d6876c9d","data_type":"tracking:checkpoint"},{"rt":13056,"responses":"{\"Q0\":\"I don't use this tool currently but <strong>I would be</strong> willing to use it\"}","questions":"[\"Have you used this tool?\"]","website":"{}","tool":"\"anonymous-browser\"","trial_type":"survey-multi-choice","trial_index":84,"time_elapsed":827393,"internal_node_id":"0.0-84.0","uuid":"6833e63d-9c47-4c3e-96f6-e094d6876c9d","data_type":"study:data"},{"rt":21296,"responses":"{\"Q0\":\"I use this tool <strong>currently</strong>\"}","questions":"[\"Have you used this tool?\"]","website":"{}","tool":"\"anti-virus\"","trial_type":"survey-multi-choice","trial_index":87,"t