[{"contentLanguage":"en","city":"not_fetched_or_initialized","country":"not_fetched_or_initialized","uuid":"03f2c57e-93ef-4a99-8257-cc60230897e8","data_type":"litw:initialize"},{"description":"irb","dropoutCode":0,"uuid":"03f2c57e-93ef-4a99-8257-cc60230897e8","data_type":"tracking:checkpoint"},{"description":"demographics","dropoutCode":0,"uuid":"03f2c57e-93ef-4a99-8257-cc60230897e8","data_type":"tracking:checkpoint"},{"retake":"0","age":"21","country0":"United Kingdom","education":"college","dataprivacy":"Yes","why":"I","uuid":"03f2c57e-93ef-4a99-8257-cc60230897e8","data_type":"study:demographics"},{"description":"websiteUseSurvey","dropoutCode":0,"uuid":"03f2c57e-93ef-4a99-8257-cc60230897e8","data_type":"tracking:checkpoint"},{"dataType":"websiteUseSurvey","accuweather":"dontuse","allrecipes":"sometimes","amazon":"dontuse","apple":"sometimes","bbc":"sometimes","craigslist":"sometimes","dictionary":"usedto","ebay":"sometimes","expedia":"dontuse","facebook":"dontuse","gmail":"dontuse","google":"sometimes","google-maps":"usedto","google-play":"often","govuk":"sometimes","imdb":"sometimes","instagram":"sometimes","linkedin":"usedto","metoffice":"sometimes","netflix":"dontuse","nytimes":"sometimes","outlook":"usedto","paypal":"often","reddit":"sometimes","tripadvisor":"sometimes","twitter":"sometimes","usagov":"usedto","whatsapp":"sometimes","wikipedia":"sometimes","yahoo":"sometimes","youtube":"dontuse","uuid":"03f2c57e-93ef-4a99-8257-cc60230897e8","data_type":"study:data"},{"description":"instructions","dropoutCode":0,"uuid":"03f2c57e-93ef-4a99-8257-cc60230897e8","data_type":"tracking:checkpoint"},{"description":"practice-1","dropoutCode":0,"uuid":"03f2c57e-93ef-4a99-8257-cc60230897e8","data_type":"tracking:checkpoint"},{"rt":3096,"responses":"{\"Q0\":\"0\"}","scenario":"\"netflix\"","tool":"{}","trial_type":"survey-likert","trial_index":3,"time_elapsed":38557,"internal_node_id":"0.0-3.0","uuid":"03f2c57e-93ef-4a99-8257-cc60230897e8","data_type":"study:data"},{"description":"pre-trial break","dropoutCode":0,"uuid":"03f2c57e-93ef-4a99-8257-cc60230897e8","data_type":"tracking:checkpoint"},{"description":"trials-1-1","dropoutCode":0,"uuid":"03f2c57e-93ef-4a99-8257-cc60230897e8","data_type":"tracking:checkpoint"},{"rt":12236,"responses":"{\"Q0\":\"2\"}","scenario":"\"facebook-1\"","tool":"{}","trial_type":"survey-likert","trial_index":8,"time_elapsed":54742,"internal_node_id":"0.0-8.0","uuid":"03f2c57e-93ef-4a99-8257-cc60230897e8","data_type":"study:data"},{"description":"trials-1-2","dropoutCode":0,"uuid":"03f2c57e-93ef-4a99-8257-cc60230897e8","data_type":"tracking:checkpoint"},{"rt":2519,"responses":"{\"Q0\":\"1\"}","scenario":"\"amazon-2\"","tool":"{}","trial_type":"survey-likert","trial_index":11,"time_elapsed":58276,"internal_node_id":"0.0-11.0","uuid":"03f2c57e-93ef-4a99-8257-cc60230897e8","data_type":"study:data"},{"description":"trials-1-3","dropoutCode":0,"uuid":"03f2c57e-93ef-4a99-8257-cc60230897e8","data_type":"tracking:checkpoint"},{"rt":5445,"responses":"{\"Q0\":\"1\"}","scenario":"\"amazon-1\"","tool":"{}","trial_type":"survey-likert","trial_index":14,"time_elapsed":64733,"internal_node_id":"0.0-14.0","uuid":"03f2c57e-93ef-4a99-8257-cc60230897e8","data_type":"study:data"},{"description":"trials-1-4","dropoutCode":0,"uuid":"03f2c57e-93ef-4a99-8257-cc60230897e8","data_type":"tracking:checkpoint"},{"rt":6595,"responses":"{\"Q0\":\"1\"}","scenario":"\"amazon-3\"","tool":"{}","trial_type":"survey-likert","trial_index":17,"time_elapsed":72340,"internal_node_id":"0.0-17.0","uuid":"03f2c57e-93ef-4a99-8257-cc60230897e8","data_type":"study:data"},{"description":"trials-1-5","dropoutCode":0,"uuid":"03f2c57e-93ef-4a99-8257-cc60230897e8","data_type":"tracking:checkpoint"},{"rt":5572,"responses":"{\"Q0\":\"3\"}","scenario":"\"ebay-1\"","tool":"{}","trial_type":"survey-likert","trial_index":20,"time_elapsed":78924,"internal_node_id":"0.0-20.0","uuid":"03f2c57e-93ef-4a99-8257-cc60230897e8","data_type":"study:data"},{"description":"mid-trial break","dropoutCode":0,"uuid":"03f2c57e-93ef-4a99-8257-cc60230897e8","data_type":"tracking:checkpoint"},{"description":"instructions","dropoutCode":0,"uuid":"03f2c57e-93ef-4a99-8257-cc60230897e8","data_type":"tracking:checkpoint"},{"description":"practice-1","dropoutCode":0,"uuid":"03f2c57e-93ef-4a99-8257-cc60230897e8","data_type":"tracking:checkpoint"},{"rt":2365,"responses":"{\"Q0\":\"No\"}","questions":"[\"bankaccount\"]","website":"\"twitter\"","trial_type":"survey-multi-choice","trial_index":26,"time_elapsed":88266,"internal_node_id":"0.0-26.0","uuid":"03f2c57e-93ef-4a99-8257-cc60230897e8","data_type":"study:data"},{"description":"pre-trial break","dropoutCode":0,"uuid":"03f2c57e-93ef-4a99-8257-cc60230897e8","data_type":"tracking:checkpoint"},{"description":"trials-2-1","dropoutCode":0,"uuid":"03f2c57e-93ef-4a99-8257-cc60230897e8","data_type":"tracking:checkpoint"},{"rt":6424,"responses":"{\"Q0\":\"No\",\"Q1\":\"No\",\"Q2\":\"Yes\"}","questions":"[\"religion\",\"products\",\"address\"]","website":"\"google_maps\"","trial_type":"survey-multi-choice","trial_index":31,"time_elapsed":98499,"internal_node_id":"0.0-31.0","uuid":"03f2c57e-93ef-4a99-8257-cc60230897e8","data_type":"study:data"},{"description":"trials-2-2","dropoutCode":0,"uuid":"03f2c57e-93ef-4a99-8257-cc60230897e8","data_type":"tracking:checkpoint"},{"rt":6024,"responses":"{\"Q0\":\"No\",\"Q1\":\"No\",\"Q2\":\"No\"}","questions":"[\"race\",\"contacts\",\"creditcard\"]","website":"\"met_office\"","trial_type":"survey-multi-choice","trial_index":34,"time_elapsed":105538,"internal_node_id":"0.0-34.0","uuid":"03f2c57e-93ef-4a99-8257-cc60230897e8","data_type":"study:data"},{"description":"trials-2-3","dropoutCode":0,"uuid":"03f2c57e-93ef-4a99-8257-cc60230897e8","data_type":"tracking:checkpoint"},{"rt":13060,"responses":"{\"Q0\":\"No\",\"Q1\":\"No\",\"Q2\":\"No\"}","questions":"[\"fingerprint\",\"emails\",\"sexuality\"]","website":"\"outlook\"","trial_type":"survey-multi-choice","trial_index":37,"time_elapsed":119617,"internal_node_id":"0.0-37.0","uuid":"03f2c57e-93ef-4a99-8257-cc60230897e8","data_type":"study:data"},{"description":"trials-2-4","dropoutCode":0,"uuid":"03f2c57e-93ef-4a99-8257-cc60230897e8","data_type":"tracking:checkpoint"},{"rt":6065,"responses":"{\"Q0\":\"No\",\"Q1\":\"No\",\"Q2\":\"Yes\"}","questions":"[\"messages\",\"hobbies\",\"device\"]","website":"\"ny_times\"","trial_type":"survey-multi-choice","trial_index":40,"time_elapsed":126697,"internal_node_id":"0.0-40.0","uuid":"03f2c57e-93ef-4a99-8257-cc60230897e8","data_type":"study:data"},{"description":"trials-2-5","dropoutCode":0,"uuid":"03f2c57e-93ef-4a99-8257-cc60230897e8","data_type":"tracking:checkpoint"},{"rt":5926,"responses":"{\"Q0\":\"No\",\"Q1\":\"No\",\"Q2\":\"No\"}","questions":"[\"passport\",\"photos\",\"employment\"]","website":"\"imbd\"","trial_type":"survey-multi-choice","trial_index":43,"time_elapsed":133634,"internal_node_id":"0.0-43.0","uuid":"03f2c57e-93ef-4a99-8257-cc60230897e8","data_type":"study:data"},{"description":"mid-trial break","dropoutCode":0,"uuid":"03f2c57e-93ef-4a99-8257-cc60230897e8","data_type":"tracking:checkpoint"},{"description":"instructions","dropoutCode":0,"uuid":"03f2c57e-93ef-4a99-8257-cc60230897e8","data_type":"tracking:checkpoint"},{"description":"practice-1","dropoutCode":0,"uuid":"03f2c57e-93ef-4a99-8257-cc60230897e8","data_type":"tracking:checkpoint"},{"rt":5401,"responses":"{\"Q0\":\"4\"}","scenario":"{}","tool":"\"browser\"","trial_type":"survey-likert","trial_index":49,"time_elapsed":146597,"internal_node_id":"0.0-49.0","uuid":"03f2c57e-93ef-4a99-8257-cc60230897e8","data_type":"study:data"},{"description":"pre-trial break","dropoutCode":0,"uuid":"03f2c57e-93ef-4a99-8257-cc60230897e8","data_type":"tracking:checkpoint"},{"description":"trials-3-1","dropoutCode":0,"uuid":"03f2c57e-93ef-4a99-8257-cc60230897e8","data_type":"tracking:checkpoint"},{"rt":1478,"responses":"{\"Q0\":\"4\"}","scenario":"{}","tool":"\"adblocker\"","trial_type":"survey-likert","trial_index":54,"time_elapsed":151852,"internal_node_id":"0.0-54.0","uuid":"03f2c57e-93ef-4a99-8257-cc60230897e8","data_type":"study:data"},{"general-comments":"","technical":"no","technical-comments":"","cheating":"no","cheating-comments":"","uuid":"03f2c57e-93ef-4a99-8257-cc60230897e8","data_type":"study:comments"},{"description":"irb","dropoutCode":0,"uuid":"7ace0bf1-8fe3-4330-b064-4ee0158e7498","data_type":"tracking:checkpoint"},{"contentLanguage":"en","city":"not_fetched_or_initialized","country":"not_fetched_or_initialized","uuid":"7ace0bf1-8fe3-4330-b064-4ee0158e7498","data_type":"litw:initialize"},{"description":"irb","dropoutCode":0,"uuid":"bed2a612-5d7e-403e-926f-7222175966a1","data_type":"tracking:checkpoint"},{"contentLanguage":"en","city":"not_fetched_or_initialized","country":"not_fetched_or_initialized","uuid":"bed2a612-5d7e-403e-926f-7222175966a1","data_type":"litw:initialize"},{"description":"irb","dropoutCode":0,"uuid":"46b2d7c7-1fa7-4c8b-b8dd-7805d88c9906","data_type":"tracking:checkpoint"},{"contentLanguage":"en","city":"not_fetched_or_initialized","country":"not_fetched_or_initialized","uuid":"46b2d7c7-1fa7-4c8b-b8dd-7805d88c9906","data_type":"litw:initialize"},{"description":"irb","dropoutCode":0,"uuid":"d2eec716-30f9-4e3d-bf63-6371ebde31a2","data_type":"tracking:checkpoint"},{"contentLanguage":"en","city":"not_fetched_or_initialized","country":"not_fetched_or_initialized","uuid":"d2eec716-30f9-4e3d-bf63-6371ebde31a2","data_type":"litw:initialize"},{"description":"irb","dropoutCode":0,"uuid":"7625eac1-a8e4-4c45-b8db-309cef50702b","data_type":"tracking:checkpoint"},{"contentLanguage":"en","city":"not_fetched_or_initialized","country":"not_fetched_or_initialized","uuid":"7625eac1-a8e4-4c45-b8db-309cef50702b","data_type":"litw:initialize"},{"description":"irb","dropoutCode":0,"uuid":"004e8ba0-b1b9-49f1-824a-645cd8205172","data_type":"tracking:checkpoint"},{"contentLanguage":"en","city":"not_fetched_or_initialized","country":"not_fetched_or_initialized","uuid":"004e8ba0-b1b9-49f1-824a-645cd8205172","data_type":"litw:initialize"},{"description":"demographics","dropoutCode":0,"uuid":"004e8ba0-b1b9-49f1-824a-645cd8205172","data_type":"tracking:checkpoint"},{"description":"irb","dropoutCode":0,"uuid":"651e0f32-90d9-49d2-88e7-d0f2d73e3afd","data_type":"tracking:checkpoint"},{"contentLanguage":"en","city":"not_fetched_or_initialized","country":"not_fetched_or_initialized","uuid":"651e0f32-90d9-49d2-88e7-d0f2d73e3afd","data_type":"litw:initialize"},{"contentLanguage":"en","city":"not_fetched_or_initialized","country":"not_fetched_or_initialized","uuid":"039b1e55-eee0-45a1-a9e8-8c4d39ebfd27","data_type":"litw:initialize"},{"description":"irb","dropoutCode":0,"uuid":"039b1e55-eee0-45a1-a9e8-8c4d39ebfd27","data_type":"tracking:checkpoint"},{"description":"demographics","dropoutCode":0,"uuid":"039b1e55-eee0-45a1-a9e8-8c4d39ebfd27","data_type":"tracking:checkpoint"},{"retake":"0","age":"99","country0":"United Kingdom","education":"college","dataprivacy":"No","why":"I don","uuid":"039b1e55-eee0-45a1-a9e8-8c4d39ebfd27","data_type":"study:demographics"},{"description":"websiteUseSurvey","dropoutCode":0,"uuid":"039b1e55-eee0-45a1-a9e8-8c4d39ebfd27","data_type":"tracking:checkpoint"},{"dataType":"websiteUseSurvey","accuweather":"never","allrecipes":"never","amazon":"never","apple":"never","bbc":"never","craigslist":"cnever","dictionary":"never","ebay":"never","expedia":"never","facebook":"never","gmail":"never","google":"never","google-maps":"never","google-play":"never","govuk":"never","imdb":"never","instagram":"never","linkedin":"never","metoffice":"never","netflix":"never","nytimes":"never","outlook":"never","paypal":"never","reddit":"never","tripadvisor":"never","twitter":"never","usagov":"never","whatsapp":"never","wikipedia":"never","yahoo":"never","youtube":"never","uuid":"039b1e55-eee0-45a1-a9e8-8c4d39ebfd27","data_type":"study:data"},{"description":"instructions","dropoutCode":0,"uuid":"039b1e55-eee0-45a1-a9e8-8c4d39ebfd27","data_type":"tracking:checkpoint"},{"description":"practice-1","dropoutCode":0,"uuid":"039b1e55-eee0-45a1-a9e8-8c4d39ebfd27","data_type":"tracking:checkpoint"},{"rt":11323,"responses":"{\"Q0\":\"1\"}","scenario":"\"netflix\"","tool":"{}","trial_type":"survey-likert","trial_index":3,"time_elapsed":50707,"internal_node_id":"0.0-3.0","uuid":"039b1e55-eee0-45a1-a9e8-8c4d39ebfd27","data_type":"study:data"},{"description":"pre-trial break","dropoutCode":0,"uuid":"039b1e55-eee0-45a1-a9e8-8c4d39ebfd27","data_type":"tracking:checkpoint"},{"description":"trials-1-1","dropoutCode":0,"uuid":"039b1e55-eee0-45a1-a9e8-8c4d39ebfd27","data_type":"tracking:checkpoint"},{"rt":17690,"responses":"{\"Q0\":\"1\"}","scenario":"\"facebook-3\"","tool":"{}","trial_type":"survey-likert","trial_index":8,"time_elapsed":73164,"internal_node_id":"0.0-8.0","uuid":"039b1e55-eee0-45a1-a9e8-8c4d39ebfd27","data_type":"study:data"},{"description":"trials-1-2","dropoutCode":0,"uuid":"039b1e55-eee0-45a1-a9e8-8c4d39ebfd27","data_type":"tracking:checkpoint"},{"description":"irb","dropoutCode":0,"uuid":"e2816187-c7c2-4e35-801c-c6d35bcd0cb6","data_type":"tracking:checkpoint"},{"contentLanguage":"en","city":"not_fetched_or_initialized","country":"not_fetched_or_initialized","uuid":"e2816187-c7c2-4e35-801c-c6d35bcd0cb6","data_type":"litw:initialize"},{"description":"demographics","dropoutCode":0,"uuid":"e2816187-c7c2-4e35-801c-c6d35bcd0cb6","data_type":"tracking:checkpoint"},{"description":"irb","dropoutCode":0,"uuid":"9a0ea2f4-b7f2-4c59-bf00-e4c51e6ad9ca","data_type":"tracking:checkpoint"},{"contentLanguage":"en","city":"not_fetched_or_initialized","country":"not_fetched_or_initialized","uuid":"9a0ea2f4-b7f2-4c59-bf00-e4c51e6ad9ca","data_type":"litw:initialize"},{"description":"demographics","dropoutCode":0,"uuid":"9a0ea2f4-b7f2-4c59-bf00-e4c51e6ad9ca","data_type":"tracking:checkpoint"},{"description":"irb","dropoutCode":0,"uuid":"390d5d32-a931-46df-9615-cf9b8a4690b4","data_type":"tracking:checkpoint"},{"contentLanguage":"en","city":"not_fetched_or_initialized","country":"not_fetched_or_initialized","uuid":"390d5d32-a931-46df-9615-cf9b8a4690b4","data_type":"litw:initialize"},{"description":"irb","dropoutCode":0,"uuid":"bbbef48f-7e0c-420e-8571-3cad432e318b","data_type":"tracking:checkpoint"},{"contentLanguage":"en","city":"not_fetched_or_initialized","country":"not_fetched_or_initialized","uuid":"bbbef48f-7e0c-420e-8571-3cad432e318b","data_type":"litw:initialize"}]