[{"description":"irb","dropoutCode":0,"uuid":"196debda-e8ed-433c-b998-aaf8337f1dfd","data_type":"tracking:checkpoint"},{"contentLanguage":"en","city":"not_fetched_or_initialized","country":"not_fetched_or_initialized","uuid":"196debda-e8ed-433c-b998-aaf8337f1dfd","data_type":"litw:initialize"},{"description":"demographics","dropoutCode":0,"uuid":"196debda-e8ed-433c-b998-aaf8337f1dfd","data_type":"tracking:checkpoint"},{"retake":"1","age":"21","country0":"United Kingdom","education":"college","dataprivacy":"Yes","why":"I am concerned about how my data is used","uuid":"196debda-e8ed-433c-b998-aaf8337f1dfd","data_type":"study:demographics"},{"description":"websiteUseSurvey","dropoutCode":0,"uuid":"196debda-e8ed-433c-b998-aaf8337f1dfd","data_type":"tracking:checkpoint"},{"dataType":"websiteUseSurvey","accuweather":"dontuse","allrecipes":"dontuse","amazon":"usedto","apple":"sometimes","bbc":"sometimes","dictionary":"dontuse","ebay":"dontuse","expedia":"dontuse","facebook":"often","gmail":"often","google":"often","google-maps":"often","instagram":"often","linkedin":"often","netflix":"often","nytimes":"sometimes","paypal":"often","reddit":"often","tripadvisor":"sometimes","twitter":"dontuse","whatsapp":"often","wikipedia":"often","youtube":"often","uuid":"196debda-e8ed-433c-b998-aaf8337f1dfd","data_type":"study:data"},{"description":"instructions","dropoutCode":0,"uuid":"196debda-e8ed-433c-b998-aaf8337f1dfd","data_type":"tracking:checkpoint"},{"description":"practice-1","dropoutCode":0,"uuid":"196debda-e8ed-433c-b998-aaf8337f1dfd","data_type":"tracking:checkpoint"},{"rt":2579,"responses":"{\"Q0\":\"0\"}","scenario":"\"scenario-example\"","tool":"{}","trial_type":"survey-likert","trial_index":3,"time_elapsed":50048,"internal_node_id":"0.0-3.0","uuid":"196debda-e8ed-433c-b998-aaf8337f1dfd","data_type":"study:data"},{"description":"pre-trial break","dropoutCode":0,"uuid":"196debda-e8ed-433c-b998-aaf8337f1dfd","data_type":"tracking:checkpoint"},{"description":"trials-1-1","dropoutCode":0,"uuid":"196debda-e8ed-433c-b998-aaf8337f1dfd","data_type":"tracking:checkpoint"},{"rt":9592,"responses":"{\"Q0\":\"3\"}","scenario":"\"tripadvisor-1\"","tool":"{}","trial_type":"survey-likert","trial_index":8,"time_elapsed":63176,"internal_node_id":"0.0-8.0","uuid":"196debda-e8ed-433c-b998-aaf8337f1dfd","data_type":"study:data"},{"description":"trials-1-2","dropoutCode":0,"uuid":"196debda-e8ed-433c-b998-aaf8337f1dfd","data_type":"tracking:checkpoint"},{"rt":4307,"responses":"{\"Q0\":\"3\"}","scenario":"\"twitter-1\"","tool":"{}","trial_type":"survey-likert","trial_index":11,"time_elapsed":68495,"internal_node_id":"0.0-11.0","uuid":"196debda-e8ed-433c-b998-aaf8337f1dfd","data_type":"study:data"},{"description":"trials-1-3","dropoutCode":0,"uuid":"196debda-e8ed-433c-b998-aaf8337f1dfd","data_type":"tracking:checkpoint"},{"rt":5564,"responses":"{\"Q0\":\"1\"}","scenario":"\"google-maps\"","tool":"{}","trial_type":"survey-likert","trial_index":14,"time_elapsed":75071,"internal_node_id":"0.0-14.0","uuid":"196debda-e8ed-433c-b998-aaf8337f1dfd","data_type":"study:data"},{"description":"trials-1-4","dropoutCode":0,"uuid":"196debda-e8ed-433c-b998-aaf8337f1dfd","data_type":"tracking:checkpoint"},{"rt":6726,"responses":"{\"Q0\":\"4\"}","scenario":"\"linkedin-1\"","tool":"{}","trial_type":"survey-likert","trial_index":17,"time_elapsed":82805,"internal_node_id":"0.0-17.0","uuid":"196debda-e8ed-433c-b998-aaf8337f1dfd","data_type":"study:data"},{"description":"trials-1-5","dropoutCode":0,"uuid":"196debda-e8ed-433c-b998-aaf8337f1dfd","data_type":"tracking:checkpoint"},{"rt":5725,"responses":"{\"Q0\":\"1\"}","scenario":"\"bbc-1\"","tool":"{}","trial_type":"survey-likert","trial_index":20,"time_elapsed":89542,"internal_node_id":"0.0-20.0","uuid":"196debda-e8ed-433c-b998-aaf8337f1dfd","data_type":"study:data"},{"description":"trials-1-6","dropoutCode":0,"uuid":"196debda-e8ed-433c-b998-aaf8337f1dfd","data_type":"tracking:checkpoint"},{"rt":4263,"responses":"{\"Q0\":\"4\"}","scenario":"\"instagram-1\"","tool":"{}","trial_type":"survey-likert","trial_index":23,"time_elapsed":94814,"internal_node_id":"0.0-23.0","uuid":"196debda-e8ed-433c-b998-aaf8337f1dfd","data_type":"study:data"},{"description":"trials-1-7","dropoutCode":0,"uuid":"196debda-e8ed-433c-b998-aaf8337f1dfd","data_type":"tracking:checkpoint"},{"rt":10518,"responses":"{\"Q0\":\"4\"}","scenario":"\"nytimes-1\"","tool":"{}","trial_type":"survey-likert","trial_index":26,"time_elapsed":106342,"internal_node_id":"0.0-26.0","uuid":"196debda-e8ed-433c-b998-aaf8337f1dfd","data_type":"study:data"},{"description":"trials-1-8","dropoutCode":0,"uuid":"196debda-e8ed-433c-b998-aaf8337f1dfd","data_type":"tracking:checkpoint"},{"rt":4479,"responses":"{\"Q0\":\"4\"}","scenario":"\"ebay-1\"","tool":"{}","trial_type":"survey-likert","trial_index":29,"time_elapsed":111831,"internal_node_id":"0.0-29.0","uuid":"196debda-e8ed-433c-b998-aaf8337f1dfd","data_type":"study:data"},{"description":"trials-1-9","dropoutCode":0,"uuid":"196debda-e8ed-433c-b998-aaf8337f1dfd","data_type":"tracking:checkpoint"},{"rt":7389,"responses":"{\"Q0\":\"1\"}","scenario":"\"amazon-1\"","tool":"{}","trial_type":"survey-likert","trial_index":32,"time_elapsed":120230,"internal_node_id":"0.0-32.0","uuid":"196debda-e8ed-433c-b998-aaf8337f1dfd","data_type":"study:data"},{"description":"trials-1-10","dropoutCode":0,"uuid":"196debda-e8ed-433c-b998-aaf8337f1dfd","data_type":"tracking:checkpoint"},{"rt":5349,"responses":"{\"Q0\":\"3\"}","scenario":"\"dictionary-2\"","tool":"{}","trial_type":"survey-likert","trial_index":35,"time_elapsed":126591,"internal_node_id":"0.0-35.0","uuid":"196debda-e8ed-433c-b998-aaf8337f1dfd","data_type":"study:data"},{"description":"mid-trial break","dropoutCode":0,"uuid":"196debda-e8ed-433c-b998-aaf8337f1dfd","data_type":"tracking:checkpoint"},{"description":"instructions","dropoutCode":0,"uuid":"196debda-e8ed-433c-b998-aaf8337f1dfd","data_type":"tracking:checkpoint"},{"description":"practice-1","dropoutCode":0,"uuid":"196debda-e8ed-433c-b998-aaf8337f1dfd","data_type":"tracking:checkpoint"},{"rt":1948,"responses":"{\"Q0\":\"Yes\"}","questions":"[\"Would mind if this website knew your bank account number?\"]","website":"\"twitter\"","tool":"{}","trial_type":"survey-multi-choice","trial_index":41,"time_elapsed":135645,"internal_node_id":"0.0-41.0","uuid":"196debda-e8ed-433c-b998-aaf8337f1dfd","data_type":"study:data"},{"description":"pre-trial break","dropoutCode":0,"uuid":"196debda-e8ed-433c-b998-aaf8337f1dfd","data_type":"tracking:checkpoint"},{"description":"trials-2-1","dropoutCode":0,"uuid":"196debda-e8ed-433c-b998-aaf8337f1dfd","data_type":"tracking:checkpoint"},{"description":"trials-2-2","dropoutCode":0,"uuid":"196debda-e8ed-433c-b998-aaf8337f1dfd","data_type":"tracking:checkpoint"},{"rt":5341,"responses":"{\"Q0\":\"Yes\",\"Q1\":\"Yes\",\"Q2\":\"Yes\"}","questions":"[\"fullname\",\"bank\",\"bankaccount\"]","website":"\"wikipedia\"","tool":"{}","trial_type":"survey-multi-choice","trial_index":46,"time_elapsed":144613,"internal_node_id":"0.0-46.0","uuid":"196debda-e8ed-433c-b998-aaf8337f1dfd","data_type":"study:data"},{"rt":7863,"responses":"{\"Q0\":\"Yes\",\"Q1\":\"Maybe\",\"Q2\":\"Yes\"}","questions":"[\"dietary\",\"device\",\"products\"]","website":"\"linkedin\"","tool":"{}","trial_type":"survey-multi-choice","trial_index":49,"time_elapsed":153492,"internal_node_id":"0.0-49.0","uuid":"196debda-e8ed-433c-b998-aaf8337f1dfd","data_type":"study:data"},{"description":"trials-2-3","dropoutCode":0,"uuid":"196debda-e8ed-433c-b998-aaf8337f1dfd","data_type":"tracking:checkpoint"},{"rt":7584,"responses":"{\"Q0\":\"Yes\",\"Q1\":\"Yes\",\"Q2\":\"Yes\"}","questions":"[\"Would you mind if this website knew if you were politcally left or right leaning?\",\"disability\",\"sexuality\"]","website":"\"youtube\"","tool":"{}","trial_type":"survey-multi-choice","trial_index":52,"time_elapsed":162095,"internal_node_id":"0.0-52.0","uuid":"196debda-e8ed-433c-b998-aaf8337f1dfd","data_type":"study:data"},{"description":"trials-2-4","dropoutCode":0,"uuid":"196debda-e8ed-433c-b998-aaf8337f1dfd","data_type":"tracking:checkpoint"},{"rt":9732,"responses":"{\"Q0\":\"No\",\"Q1\":\"Yes\",\"Q2\":\"Yes\"}","questions":"[\"face\",\"deviceID\",\"messages\"]","website":"\"reddit\"","tool":"{}","trial_type":"survey-multi-choice","trial_index":55,"time_elapsed":172845,"internal_node_id":"0.0-55.0","uuid":"196debda-e8ed-433c-b998-aaf8337f1dfd","data_type":"study:data"},{"description":"trials-2-5","dropoutCode":0,"uuid":"196debda-e8ed-433c-b998-aaf8337f1dfd","data_type":"tracking:checkpoint"},{"rt":8377,"responses":"{\"Q0\":\"Yes\",\"Q1\":\"Yes\",\"Q2\":\"Maybe\"}","questions":"[\"vote\",\"religion\",\"emails\"]","website":"\"gmail\"","tool":"{}","trial_type":"survey-multi-choice","trial_index":58,"time_elapsed":182235,"internal_node_id":"0.0-58.0","uuid":"196debda-e8ed-433c-b998-aaf8337f1dfd","data_type":"study:data"},{"description":"mid-trial break","dropoutCode":0,"uuid":"196debda-e8ed-433c-b998-aaf8337f1dfd","data_type":"tracking:checkpoint"},{"description":"instructions","dropoutCode":0,"uuid":"196debda-e8ed-433c-b998-aaf8337f1dfd","data_type":"tracking:checkpoint"},{"description":"practice-1","dropoutCode":0,"uuid":"196debda-e8ed-433c-b998-aaf8337f1dfd","data_type":"tracking:checkpoint"},{"rt":1444,"responses":"{\"Q0\":\"I use this tool <strong>currently</strong>\"}","questions":"[\"Have you used this tool?\"]","website":"{}","tool":"\"browser\"","trial_type":"survey-multi-choice","trial_index":64,"time_elapsed":190654,"internal_node_id":"0.0-64.0","uuid":"196debda-e8ed-433c-b998-aaf8337f1dfd","data_type":"study:data"},{"description":"pre-trial break","dropoutCode":0,"uuid":"196debda-e8ed-433c-b998-aaf8337f1dfd","data_type":"tracking:checkpoint"},{"description":"trials-3-1","dropoutCode":0,"uuid":"196debda-e8ed-433c-b998-aaf8337f1dfd","data_type":"tracking:checkpoint"},{"rt":2602,"responses":"{\"Q0\":\"I use this tool <strong>currently</strong>\"}","questions":"[\"Have you used this tool?\"]","website":"{}","tool":"\"encrypted-messaging\"","trial_type":"survey-multi-choice","trial_index":69,"time_elapsed":196829,"internal_node_id":"0.0-69.0","uuid":"196debda-e8ed-433c-b998-aaf8337f1dfd","data_type":"study:data"},{"description":"trials-3-2","dropoutCode":0,"uuid":"196debda-e8ed-433c-b998-aaf8337f1dfd","data_type":"tracking:checkpoint"},{"rt":5084,"responses":"{\"Q0\":\"I don't use this tool currently but <strong>I would be</strong> willing to use it\"}","questions":"[\"Have you used this tool?\"]","website":"{}","tool":"\"anonymous-browser\"","trial_type":"survey-multi-choice","trial_index":72,"time_elapsed":202924,"internal_node_id":"0.0-72.0","uuid":"196debda-e8ed-433c-b998-aaf8337f1dfd","data_type":"study:data"},{"description":"trials-3-3","dropoutCode":0,"uuid":"196debda-e8ed-433c-b998-aaf8337f1dfd","data_type":"tracking:checkpoint"},{"rt":2132,"responses":"{\"Q0\":\"I use this tool <strong>currently</strong>\"}","questions":"[\"Have you used this tool?\"]","website":"{}","tool":"\"adblocker\"","trial_type":"survey-multi-choice","trial_index":75,"time_elapsed":206067,"internal_node_id":"0.0-75.0","uuid":"196debda-e8ed-433c-b998-aaf8337f1dfd","data_type":"study:data"},{"description":"trials-3-4","dropoutCode":0,"uuid":"196debda-e8ed-433c-b998-aaf8337f1dfd","data_type":"tracking:checkpoint"},{"rt":1852,"responses":"{\"Q0\":\"I use this tool <strong>currently</strong>\"}","questions":"[\"Have you used this tool?\"]","website":"{}","tool":"\"anti-virus\"","trial_type":"survey-multi-choice","trial_index":78,"time_elapsed":208934,"internal_node_id":"0.0-78.0","uuid":"196debda-e8ed-433c-b998-aaf8337f1dfd","data_type":"study:data"},{"description":"trials-3-5","dropoutCode":0,"uuid":"196debda-e8ed-433c-b998-aaf8337f1dfd","data_type":"tracking:checkpoint"},{"rt":1776,"responses":"{\"Q0\":\"I use this tool <strong>currently</strong>\"}","questions":"[\"Have you used this tool?\"]","website":"{}","tool":"\"third-party\"","trial_type":"survey-multi-choice","trial_index":81,"time_elapsed":211722,"internal_node_id":"0.0-81.0","uuid":"196debda-e8ed-433c-b998-aaf8337f1dfd","data_type":"study:data"},{"description":"trials-3-6","dropoutCode":0,"uuid":"196debda-e8ed-433c-b998-aaf8337f1dfd","data_type":"tracking:checkpoint"},{"rt":4343,"responses":"{\"Q0\":\"I don't use this tool currently but <strong>I would be</strong> willing to use it\"}","questions":"[\"Have you used this tool?\"]","website":"{}","tool":"\"private-email\"","trial_type":"survey-multi-choice","trial_index":84,"time_elapsed":217075,"internal_node_id":"0.0-84.0","uuid":"196debda-e8ed-433c-b998-aaf8337f1dfd","data_type":"study:data"},{"description":"trials-3-7","dropoutCode":0,"uuid":"196debda-e8ed-433c-b998-aaf8337f1dfd","data_type":"tracking:checkpoint"},{"rt":1790,"responses":"{\"Q0\":\"I use this tool <strong>currently</strong>\"}","questions":"[\"Have you used this tool?\"]","website":"{}","tool":"\"password-manager\"","trial_type":"survey-multi-choice","trial_index":87,"time_elapsed":219875,"internal_node_id":"0.0-87.0","uuid":"196debda-e8ed-433c-b998-aaf8337f1dfd","data_type":"study:data"},{"description":"trials-3-8","dropoutCode":0,"uuid":"196debda-e8ed-433c-b998-aaf8337f1dfd","data_type":"tracking:checkpoint"},{"rt":3583,"responses":"{\"Q0\":\"I have used this tool in the past and <strong>would</strong> be willing to use it again\"}","questions":"[\"Have you used this tool?\"]","website":"{}","tool":"\"vpn\"","trial_type":"survey-multi-choice","trial_index":90,"time_elapsed":224467,"internal_node_id":"0.0-90.0","uuid":"196debda-e8ed-433c-b998-aaf8337f1dfd","data_type":"study:data"},{"general-comments":"","technical":"no","technical-comments":"","cheating":"no","cheating-comments":"","uuid":"196debda-e8ed-433c-b998-aaf8337f1dfd","data_type":"study:comments"},{"riskFactor":2,"uuid":"196debda-e8ed-433c-b998-aaf8337f1dfd"}]